"rt","url","trial_type","trial_index","time_elapsed","internal_node_id","view_history","response","stimulus","data_type","noun_type","viet_noun_type","int_type_1","viet_int_type_1","int_type_2","viet_int_type_2","sub_type_1","viet_sub_type_1","sub_type_2","viet_sub_type_2","sub_type","viet_sub_type","int_type","viet_int_type"
"27250.205000163987","viet_consent_1.html","external-html","0","27779","0.0-0.0","","","","","","","","","","","","","","","","","",""
"18440.349999815226","","instructions","1","46221","0.0-1.0","[{""page_index"":0,""viewing_time"":3639.7149998228997},{""page_index"":1,""viewing_time"":12007.755000144243},{""page_index"":2,""viewing_time"":2792.1100000385195}]","","","","","","","","","","","","","","","","",""
"11565.880000125617","","html-slider-response","2","57789","0.0-2.0","","6","<strong>Cách mô tả nào về  ""cái ly"" nghe tự nhiên hơn?</strong>","int_int_noun","cup","cái ly","square","hình vuông","wooden","gỗ","","","","","","","",""
"9221.709999954328","","html-slider-response","3","67012","0.0-3.0","","0","<strong>Cách mô tả nào về  ""xôi"" nghe tự nhiên hơn?</strong>","int_int_noun","sticky rice","xôi","round","hình tròn","dirty","dơ","","","","","","","",""
"9318.64000018686","","html-slider-response","4","76332","0.0-4.0","","0","<strong>Cách mô tả nào về ""trái xoài"" nghe tự nhiên hơn?</strong>","sub_sub_noun","mango","trái xoài","","","","","small","nhỏ","beautiful","đẹp","","","",""
"7238.635000074282","","html-slider-response","5","83572","0.0-5.0","","0","<strong>Cách mô tả nào về ""cục kẹo"" nghe tự nhiên hơn?</strong>","sub_int_noun","candy","cục kẹo","","","","","","","","","beautiful","đẹp","red","màu đỏ"
"8446.775000076741","","html-slider-response","6","92020","0.0-6.0","","6","<strong>Cách mô tả nào về  ""trái ớt"" nghe tự nhiên hơn?</strong>","int_int_noun","pepper","trái ớt","clean","sạch","yellow","màu vàng","","","","","","","",""
"6598.585000028834","","html-slider-response","7","98620","0.0-7.0","","0","<strong>Cách mô tả nào về ""trái xoài"" nghe tự nhiên hơn?</strong>","sub_sub_noun","mango","trái xoài","","","","","small","nhỏ","bitter","đắng","","","",""
"9102.990000043064","","html-slider-response","8","107724","0.0-8.0","","6","<strong>Cách mô tả nào về ""cái bàn"" nghe tự nhiên hơn?</strong>","sub_int_noun","table","cái bàn","","","","","","","","","ugly","xấu","dirty","hình tròn"
"27206.550000002608","","html-slider-response","9","134932","0.0-9.0","","2","<strong>Cách mô tả nào về ""cái quạt"" nghe tự nhiên hơn?</strong>","sub_sub_noun","fan","cái quạt","","","","","small","nhỏ","tall","cao","","","",""
"13502.725000027567","","html-slider-response","10","148436","0.0-10.0","","5","<strong>Cách mô tả nào về ""cái ly"" nghe tự nhiên hơn?</strong>","sub_sub_noun","cup","cái ly","","","","","short","thấp","big","lớn","","","",""
"18006.810000166297","","html-slider-response","11","166444","0.0-11.0","","5","<strong>Cách mô tả nào về ""xôi"" nghe tự nhiên hơn?</strong>","sub_sub_noun","sticky rice","xôi","","","","","ugly","xấu","sweet","ngọt","","","",""
"8678.695000009611","","html-slider-response","12","175124","0.0-12.0","","0","<strong>Cách mô tả nào về  ""trái ớt"" nghe tự nhiên hơn?</strong>","int_int_noun","pepper","trái ớt","square","hình vuông","dirty","dơ","","","","","","","",""
"9742.774999933317","","html-slider-response","13","184868","0.0-13.0","","0","<strong>Cách mô tả nào về ""trái chuối"" nghe tự nhiên hơn?</strong>","sub_int_noun","banana","trái chuối","","","","","","","","","beautiful","đẹp","dirty","dơ"
"8230.84000009112","","html-slider-response","14","193100","0.0-14.0","","0","<strong>Cách mô tả nào về ""cái ly"" nghe tự nhiên hơn?</strong>","sub_int_noun","cup","cái ly","","","","","","","","","big","lớn","yellow","màu vàng"
"9654.755000025034","","html-slider-response","15","202756","0.0-15.0","","0","<strong>Cách mô tả nào về ""cái xe"" nghe tự nhiên hơn?</strong>","sub_int_noun","car","cái xe","","","","","","","","","short","thấp","clean","sạch"
"6662.775000091642","","html-slider-response","16","209420","0.0-16.0","","0","<strong>Cách mô tả nào về ""cái quạt"" nghe tự nhiên hơn?</strong>","sub_sub_noun","fan","cái quạt","","","","","tall","cao","beautiful","đẹp","","","",""
"14382.724999915808","","html-slider-response","17","223804","0.0-17.0","","6","<strong>Cách mô tả nào về  ""cục kẹo"" nghe tự nhiên hơn?</strong>","int_int_noun","candy","cục kẹo","square","hình vuông","yellow","màu vàng","","","","","","","",""
"7350.71499994956","","html-slider-response","18","231156","0.0-18.0","","0","<strong>Cách mô tả nào về ""cục kẹo"" nghe tự nhiên hơn?</strong>","sub_sub_noun","candy","cục kẹo","","","","","big","lớn","sweet","ngọt","","","",""
"6878.794999793172","","html-slider-response","19","238036","0.0-19.0","","0","<strong>Cách mô tả nào về ""cái quạt"" nghe tự nhiên hơn?</strong>","sub_sub_noun","fan","cái quạt","","","","","tall","cao","ugly","xấu","","","",""
"11310.855000047013","","html-slider-response","20","249348","0.0-20.0","","0","<strong>Cách mô tả nào về  ""xôi"" nghe tự nhiên hơn?</strong>","int_int_noun","sticky rice","xôi","yellow","màu vàng","square","hình vuông","","","","","","","",""
"5590.804999927059","","html-slider-response","21","254940","0.0-21.0","","0","<strong>Cách mô tả nào về ""cái ly"" nghe tự nhiên hơn?</strong>","sub_int_noun","cup","cái ly","","","","","","","","","short","thấp","dirty","dơ"
"7862.935000099242","","html-slider-response","22","262804","0.0-22.0","","6","<strong>Cách mô tả nào về ""trái chuối"" nghe tự nhiên hơn?</strong>","sub_int_noun","banana","trái chuối","","","","","","","","","bitter","đắng","yellow","màu vàng"
"4910.769999958575","","html-slider-response","23","267716","0.0-23.0","","6","<strong>Cách mô tả nào về  ""xôi"" nghe tự nhiên hơn?</strong>","int_int_noun","sticky rice","xôi","dirty","dơ","red","màu đỏ","","","","","","","",""
"4982.714999932796","","html-slider-response","24","272700","0.0-24.0","","0","<strong>Cách mô tả nào về ""trái ớt"" nghe tự nhiên hơn?</strong>","sub_int_noun","pepper","trái ớt","","","","","","","","","beautiful","đẹp","yellow","màu vàng"
"5766.804999904707","","html-slider-response","25","278468","0.0-25.0","","6","<strong>Cách mô tả nào về ""cái bàn"" nghe tự nhiên hơn?</strong>","sub_int_noun","table","cái bàn","","","","","","","","","beautiful","đẹp","wooden","gỗ"
"12086.794999893755","","html-slider-response","26","290556","0.0-26.0","","6","<strong>Cách mô tả nào về ""trái ớt"" nghe tự nhiên hơn?</strong>","sub_sub_noun","pepper","trái ớt","","","","","sweet","ngọt","big","lớn","","","",""
"7742.790000047535","","html-slider-response","27","298300","0.0-27.0","","0","<strong>Cách mô tả nào về  ""xôi"" nghe tự nhiên hơn?</strong>","int_int_noun","sticky rice","xôi","red","màu đỏ","dirty","dơ","","","","","","","",""
"10790.769999846816","","html-slider-response","28","309092","0.0-28.0","","0","<strong>Cách mô tả nào về  ""trái xoài"" nghe tự nhiên hơn?</strong>","int_int_noun","mango","trái xoài","square","hình vuông","dirty","dơ","","","","","","","",""
"36014.77499981411","","html-slider-response","29","345108","0.0-29.0","","6","<strong>Cách mô tả nào về ""cục kẹo"" nghe tự nhiên hơn?</strong>","sub_int_noun","candy","cục kẹo","","","","","","","","","small","nhỏ","round","hình tròn"
"14710.690000094473","","html-slider-response","30","359820","0.0-30.0","","6","<strong>Cách mô tả nào về  ""cục kẹo"" nghe tự nhiên hơn?</strong>","int_int_noun","candy","cục kẹo","square","hình vuông","red","màu đỏ","","","","","","","",""
"24310.71999995038","","html-slider-response","31","384132","0.0-31.0","","0","<strong>Cách mô tả nào về ""cái bàn"" nghe tự nhiên hơn?</strong>","sub_sub_noun","table","cái bàn","","","","","tall","cao","big","lớn","","","",""
