"rt","url","trial_type","trial_index","time_elapsed","internal_node_id","view_history","response","stimulus","data_type","noun_type","viet_noun_type","sub_type_1","viet_sub_type_1","sub_type_2","viet_sub_type_2","sub_type","viet_sub_type","int_type","viet_int_type","int_type_1","viet_int_type_1","int_type_2","viet_int_type_2"
"3462","viet_consent_1.html","external-html","0","3468","0.0-0.0","","","","","","","","","","","","","","","","","",""
"22730","","instructions","1","26200","0.0-1.0","[{""page_index"":0,""viewing_time"":4175},{""page_index"":1,""viewing_time"":15027},{""page_index"":2,""viewing_time"":3527}]","","","","","","","","","","","","","","","","",""
"61679","","html-slider-response","2","87887","0.0-2.0","","0","<strong>Cách mô tả nào về ""cục kẹo"" nghe tự nhiên hơn?</strong>","sub_sub_noun","candy","cục kẹo","sweet","ngọt","big","lớn","","","","","","","",""
"32443","","html-slider-response","3","120336","0.0-3.0","","0","<strong>Cách mô tả nào về ""cái quạt"" nghe tự nhiên hơn?</strong>","sub_int_noun","fan","cái quạt","","","","","beautiful","đẹp","dirty","dơ","","","",""
"37202","","html-slider-response","4","157542","0.0-4.0","","6","<strong>Cách mô tả nào về ""trái ớt"" nghe tự nhiên hơn?</strong>","sub_int_noun","pepper","trái ớt","","","","","small","nhỏ","clean","sạch","","","",""
"52540","","html-slider-response","5","210084","0.0-5.0","","6","<strong>Cách mô tả nào về  ""xôi"" nghe tự nhiên hơn?</strong>","int_int_noun","sticky rice","xôi","","","","","","","","","red","màu đỏ","dirty","dơ"
"21412.00000000003","","html-slider-response","6","231499","0.0-6.0","","0","<strong>Cách mô tả nào về ""cục kẹo"" nghe tự nhiên hơn?</strong>","sub_int_noun","candy","cục kẹo","","","","","bitter","đắng","round","hình tròn","","","",""
"21257","","html-slider-response","7","252760","0.0-7.0","","6","<strong>Cách mô tả nào về  ""cái quạt"" nghe tự nhiên hơn?</strong>","int_int_noun","fan","cái quạt","","","","","","","","","yellow","màu vàng","plastic","nhựa"
"19260","","html-slider-response","8","272024","0.0-8.0","","0","<strong>Cách mô tả nào về  ""cái ghế"" nghe tự nhiên hơn?</strong>","int_int_noun","chair","cái ghế","","","","","","","","","plastic","nhựa","red","màu đỏ"
"28051.99999999994","","html-slider-response","9","300079","0.0-9.0","","0","<strong>Cách mô tả nào về ""cái ghế"" nghe tự nhiên hơn?</strong>","sub_sub_noun","chair","cái ghế","ugly","xấu","short","thấp","","","","","","","",""
"31153","","html-slider-response","10","331234","0.0-10.0","","0","<strong>Cách mô tả nào về ""cục kẹo"" nghe tự nhiên hơn?</strong>","sub_int_noun","candy","cục kẹo","","","","","sweet","ngọt","clean","sạch","","","",""
"19626","","html-slider-response","11","350866","0.0-11.0","","0","<strong>Cách mô tả nào về ""trái ớt"" nghe tự nhiên hơn?</strong>","sub_sub_noun","pepper","trái ớt","beautiful","đẹp","small","nhỏ","","","","","","","",""
"16533.00000000006","","html-slider-response","12","367403","0.0-12.0","","0","<strong>Cách mô tả nào về ""trái xoài"" nghe tự nhiên hơn?</strong>","sub_sub_noun","mango","trái xoài","bitter","đắng","big","lớn","","","","","","","",""
"18201","","html-slider-response","13","385606","0.0-13.0","","0","<strong>Cách mô tả nào về  ""cái ly"" nghe tự nhiên hơn?</strong>","int_int_noun","cup","cái ly","","","","","","","","","square","hình vuông","wooden","gỗ"
"21148","","html-slider-response","14","406758","0.0-14.0","","0","<strong>Cách mô tả nào về ""xôi"" nghe tự nhiên hơn?</strong>","sub_int_noun","sticky rice","xôi","","","","","","nhỏ","red","màu đỏ","","","",""
"14104","","html-slider-response","15","420865","0.0-15.0","","0","<strong>Cách mô tả nào về ""cái quạt"" nghe tự nhiên hơn?</strong>","sub_int_noun","fan","cái quạt","","","","","small","nhỏ","red","màu đỏ","","","",""
"12908","","html-slider-response","16","433776","0.0-16.0","","0","<strong>Cách mô tả nào về ""cái ly"" nghe tự nhiên hơn?</strong>","sub_int_noun","cup","cái ly","","","","","ugly","xấu","clean","sạch","","","",""
"17013","","html-slider-response","17","450793","0.0-17.0","","0","<strong>Cách mô tả nào về  ""trái xoài"" nghe tự nhiên hơn?</strong>","int_int_noun","mango","trái xoài","","","","","","","","","clean","sạch","round","hình tròn"
"23705","","html-slider-response","18","474501","0.0-18.0","","0","<strong>Cách mô tả nào về ""cái xe"" nghe tự nhiên hơn?</strong>","sub_int_noun","car","cái xe","","","","","tall","cao","red","màu đỏ","","","",""
"17722.00000000006","","html-slider-response","19","492227","0.0-19.0","","0","<strong>Cách mô tả nào về ""cái bàn"" nghe tự nhiên hơn?</strong>","sub_sub_noun","table","cái bàn","big","lớn","short","thấp","","","","","","","",""
"15941","","html-slider-response","20","508172","0.0-20.0","","0","<strong>Cách mô tả nào về  ""trái ớt"" nghe tự nhiên hơn?</strong>","int_int_noun","pepper","trái ớt","","","","","","","","","dirty","dơ","round","hình tròn"
"10511.000000000058","","html-slider-response","21","518687","0.0-21.0","","6","<strong>Cách mô tả nào về ""cái xe"" nghe tự nhiên hơn?</strong>","sub_int_noun","car","cái xe","","","","","big","lớn","yellow","màu vàng","","","",""
"19157.99999999994","","html-slider-response","22","537849","0.0-22.0","","0","<strong>Cách mô tả nào về ""trái xoài"" nghe tự nhiên hơn?</strong>","sub_sub_noun","mango","trái xoài","small","nhỏ","bitter","đắng","","","","","","","",""
"7626.000000000116","","html-slider-response","23","545478","0.0-23.0","","0","<strong>Cách mô tả nào về ""trái chuối"" nghe tự nhiên hơn?</strong>","sub_sub_noun","banana","trái chuối","ugly","xấu","sweet","ngọt","","","","","","","",""
"18641","","html-slider-response","24","564123","0.0-24.0","","0","<strong>Cách mô tả nào về  ""cái ly"" nghe tự nhiên hơn?</strong>","int_int_noun","cup","cái ly","","","","","","","","","round","hình tròn","yellow","màu vàng"
"14854","","html-slider-response","25","578980","0.0-25.0","","0","<strong>Cách mô tả nào về ""trái chuối"" nghe tự nhiên hơn?</strong>","sub_sub_noun","banana","trái chuối","small","nhỏ","beautiful","đẹp","","","","","","","",""
"13997","","html-slider-response","26","592980","0.0-26.0","","0","<strong>Cách mô tả nào về ""cái bàn"" nghe tự nhiên hơn?</strong>","sub_int_noun","table","cái bàn","","","","","short","thấp","wooden","gỗ","","","",""
"9966","","html-slider-response","27","602949","0.0-27.0","","0","<strong>Cách mô tả nào về ""trái chuối"" nghe tự nhiên hơn?</strong>","sub_sub_noun","banana","trái chuối","bitter","đắng","small","nhỏ","","","","","","","",""
"7376","","html-slider-response","28","610329","0.0-28.0","","0","<strong>Cách mô tả nào về ""cái ghế"" nghe tự nhiên hơn?</strong>","sub_sub_noun","chair","cái ghế","small","nhỏ","short","thấp","","","","","","","",""
"9465","","html-slider-response","29","619797","0.0-29.0","","0","<strong>Cách mô tả nào về  ""cái bàn"" nghe tự nhiên hơn?</strong>","int_int_noun","table","cái bàn","","","","","","","","","plastic","nhựa","dirty","hình tròn"
"14973","","html-slider-response","30","634774","0.0-30.0","","0","<strong>Cách mô tả nào về  ""cái xe"" nghe tự nhiên hơn?</strong>","int_int_noun","car","cái xe","","","","","","","","","plastic","nhựa","clean","sạch"
"18409","","html-slider-response","31","653186","0.0-31.0","","0","<strong>Cách mô tả nào về  ""xôi"" nghe tự nhiên hơn?</strong>","int_int_noun","sticky rice","xôi","","","","","","","","","dirty","dơ","red","màu đỏ"
