"rt","url","trial_type","trial_index","time_elapsed","internal_node_id","view_history","response","stimulus","data_type","noun_type","viet_noun_type","sub_type_1","viet_sub_type_1","sub_type_2","viet_sub_type_2","sub_type","viet_sub_type","int_type","viet_int_type","int_type_1","viet_int_type_1","int_type_2","viet_int_type_2"
"7144.800000000032","viet_consent_1.html","external-html","0","8191","0.0-0.0","","","","","","","","","","","","","","","","","",""
"12559.699999999793","","instructions","1","20755","0.0-1.0","[{""page_index"":0,""viewing_time"":2764.900000000125},{""page_index"":1,""viewing_time"":7208.499999998821},{""page_index"":2,""viewing_time"":2583.3000000002357}]","","","","","","","","","","","","","","","","",""
"16725.59999999976","","html-slider-response","2","37488","0.0-2.0","","0","<strong>Cách mô tả nào về ""cái bàn"" nghe tự nhiên hơn?</strong>","sub_sub_noun","table","cái bàn","beautiful","đẹp","big","lớn","","","","","","","",""
"15829.599999999118","","html-slider-response","3","53323","0.0-3.0","","0","<strong>Cách mô tả nào về ""xôi"" nghe tự nhiên hơn?</strong>","sub_sub_noun","sticky rice","xôi","ugly","xấu","","lớn","","","","","","","",""
"7909.499999999753","","html-slider-response","4","61237","0.0-4.0","","0","<strong>Cách mô tả nào về ""cái ly"" nghe tự nhiên hơn?</strong>","sub_int_noun","cup","cái ly","","","","","beautiful","đẹp","clean","sạch","","","",""
"12304.999999998472","","html-slider-response","5","73546","0.0-5.0","","0","<strong>Cách mô tả nào về  ""xôi"" nghe tự nhiên hơn?</strong>","int_int_noun","sticky rice","xôi","","","","","","","","","round","hình tròn","red","màu đỏ"
"5163.099999999758","","html-slider-response","6","78714","0.0-6.0","","6","<strong>Cách mô tả nào về ""cái quạt"" nghe tự nhiên hơn?</strong>","sub_int_noun","fan","cái quạt","","","","","small","nhỏ","round","hình tròn","","","",""
"5343.699999999444","","html-slider-response","7","84062","0.0-7.0","","0","<strong>Cách mô tả nào về ""cái quạt"" nghe tự nhiên hơn?</strong>","sub_int_noun","fan","cái quạt","","","","","short","thấp","yellow","màu vàng","","","",""
"7928.299999999581","","html-slider-response","8","91994","0.0-8.0","","6","<strong>Cách mô tả nào về ""trái ớt"" nghe tự nhiên hơn?</strong>","sub_sub_noun","pepper","trái ớt","beautiful","đẹp","sweet","ngọt","","","","","","","",""
"3864.1000000006898","","html-slider-response","9","95863","0.0-9.0","","6","<strong>Cách mô tả nào về  ""cái bàn"" nghe tự nhiên hơn?</strong>","int_int_noun","table","cái bàn","","","","","","","","","square","sạch","wooden","gỗ"
"4993.099999999686","","html-slider-response","10","100860","0.0-10.0","","6","<strong>Cách mô tả nào về  ""cục kẹo"" nghe tự nhiên hơn?</strong>","int_int_noun","candy","cục kẹo","","","","","","","","","yellow","màu vàng","square","hình vuông"
"4541.49999999936","","html-slider-response","11","105405","0.0-11.0","","6","<strong>Cách mô tả nào về  ""cái xe"" nghe tự nhiên hơn?</strong>","int_int_noun","car","cái xe","","","","","","","","","clean","sạch","wooden","gỗ"
"6302.999999999884","","html-slider-response","12","111712","0.0-12.0","","6","<strong>Cách mô tả nào về ""cái xe"" nghe tự nhiên hơn?</strong>","sub_int_noun","car","cái xe","","","","","ugly","xấu","yellow","màu vàng","","","",""
"4452.800000000934","","html-slider-response","13","116169","0.0-13.0","","6","<strong>Cách mô tả nào về ""trái ớt"" nghe tự nhiên hơn?</strong>","sub_sub_noun","pepper","trái ớt","big","lớn","ugly","xấu","","","","","","","",""
"3701.3000000006286","","html-slider-response","14","119874","0.0-14.0","","6","<strong>Cách mô tả nào về  ""cái ghế"" nghe tự nhiên hơn?</strong>","int_int_noun","chair","cái ghế","","","","","","","","","yellow","màu vàng","round","hình tròn"
"6299.000000000888","","html-slider-response","15","126177","0.0-15.0","","6","<strong>Cách mô tả nào về  ""cục kẹo"" nghe tự nhiên hơn?</strong>","int_int_noun","candy","cục kẹo","","","","","","","","","dirty","dơ","red","màu đỏ"
"3440.0000000005093","","html-slider-response","16","129622","0.0-16.0","","6","<strong>Cách mô tả nào về ""trái chuối"" nghe tự nhiên hơn?</strong>","sub_sub_noun","banana","trái chuối","beautiful","đẹp","small","nhỏ","","","","","","","",""
"3674.3999999998487","","html-slider-response","17","133300","0.0-17.0","","6","<strong>Cách mô tả nào về ""cái ghế"" nghe tự nhiên hơn?</strong>","sub_sub_noun","chair","cái ghế","big","lớn","tall","cao","","","","","","","",""
"3285.700000000361","","html-slider-response","18","136590","0.0-18.0","","6","<strong>Cách mô tả nào về  ""trái ớt"" nghe tự nhiên hơn?</strong>","int_int_noun","pepper","trái ớt","","","","","","","","","red","màu đỏ","round","hình tròn"
"5489.49999999968","","html-slider-response","19","142084","0.0-19.0","","6","<strong>Cách mô tả nào về ""trái xoài"" nghe tự nhiên hơn?</strong>","sub_sub_noun","mango","trái xoài","big","lớn","bitter","đắng","","","","","","","",""
"2531.9999999992433","","html-slider-response","20","144620","0.0-20.0","","6","<strong>Cách mô tả nào về  ""cái xe"" nghe tự nhiên hơn?</strong>","int_int_noun","car","cái xe","","","","","","","","","dirty","dơ","wooden","gỗ"
"2589.400000000722","","html-slider-response","21","147213","0.0-21.0","","6","<strong>Cách mô tả nào về ""cái ly"" nghe tự nhiên hơn?</strong>","sub_int_noun","cup","cái ly","","","","","big","lớn","square","hình vuông","","","",""
"3434.699999999779","","html-slider-response","22","150652","0.0-22.0","","6","<strong>Cách mô tả nào về ""trái chuối"" nghe tự nhiên hơn?</strong>","sub_int_noun","banana","trái chuối","","","","","big","lớn","clean","sạch","","","",""
"3769.200000000652","","html-slider-response","23","154426","0.0-23.0","","6","<strong>Cách mô tả nào về ""trái xoài"" nghe tự nhiên hơn?</strong>","sub_sub_noun","mango","trái xoài","small","nhỏ","bitter","đắng","","","","","","","",""
"2450.100000000035","","html-slider-response","24","156880","0.0-24.0","","6","<strong>Cách mô tả nào về ""cái quạt"" nghe tự nhiên hơn?</strong>","sub_int_noun","fan","cái quạt","","","","","tall","cao","clean","sạch","","","",""
"2474.6999999988475","","html-slider-response","25","159359","0.0-25.0","","6","<strong>Cách mô tả nào về ""trái chuối"" nghe tự nhiên hơn?</strong>","sub_int_noun","banana","trái chuối","","","","","ugly","xấu","clean","sạch","","","",""
"2454.5999999991036","","html-slider-response","26","161818","0.0-26.0","","6","<strong>Cách mô tả nào về ""cái bàn"" nghe tự nhiên hơn?</strong>","sub_sub_noun","table","cái bàn","short","thấp","small","nhỏ","","","","","","","",""
"2472.599999999162","","html-slider-response","27","164294","0.0-27.0","","6","<strong>Cách mô tả nào về  ""cái ghế"" nghe tự nhiên hơn?</strong>","int_int_noun","chair","cái ghế","","","","","","","","","wooden","gỗ","clean","sạch"
"4287.899999999325","","html-slider-response","28","168586","0.0-28.0","","6","<strong>Cách mô tả nào về ""xôi"" nghe tự nhiên hơn?</strong>","sub_int_noun","sticky rice","xôi","","","","","bitter","đắng","square","hình vuông","","","",""
"4008.100000000937","","html-slider-response","29","172599","0.0-29.0","","6","<strong>Cách mô tả nào về  ""cục kẹo"" nghe tự nhiên hơn?</strong>","int_int_noun","candy","cục kẹo","","","","","","","","","yellow","màu vàng","dirty","dơ"
"3237.199999999604","","html-slider-response","30","175840","0.0-30.0","","6","<strong>Cách mô tả nào về ""trái xoài"" nghe tự nhiên hơn?</strong>","sub_int_noun","mango","trái xoài","","","","","sweet","ngọt","square","hình vuông","","","",""
"2267.700000000361","","html-slider-response","31","178112","0.0-31.0","","6","<strong>Cách mô tả nào về ""cái ly"" nghe tự nhiên hơn?</strong>","sub_sub_noun","cup","cái ly","big","lớn","beautiful","đẹp","","","","","","","",""
