"rt","url","trial_type","trial_index","time_elapsed","internal_node_id","view_history","response","stimulus","data_type","noun_type","viet_noun_type","sub_type","viet_sub_type","int_type","viet_int_type","int_type_1","viet_int_type_1","int_type_2","viet_int_type_2","sub_type_1","viet_sub_type_1","sub_type_2","viet_sub_type_2"
"138596.00000001956","viet_consent_1.html","external-html","0","139314","0.0-0.0","","","","","","","","","","","","","","","","","",""
"16393.29999999609","","instructions","1","155712","0.0-1.0","[{""page_index"":0,""viewing_time"":3588.6999999638647},{""page_index"":1,""viewing_time"":9650.700000114739},{""page_index"":2,""viewing_time"":3152.7999999234453}]","","","","","","","","","","","","","","","","",""
"58935.10000000242","","html-slider-response","2","214653","0.0-2.0","","0","<strong>Cách mô tả nào về ""cái ghế"" nghe tự nhiên hơn?</strong>","sub_int_noun","chair","cái ghế","tall","cao","clean","sạch","","","","","","","",""
"17375.800000037998","","html-slider-response","3","232033","0.0-3.0","","0","<strong>Cách mô tả nào về  ""trái chuối"" nghe tự nhiên hơn?</strong>","int_int_noun","banana","trái chuối","","","","","dirty","dơ","yellow","màu vàng","","","",""
"12002.89999996312","","html-slider-response","4","244038","0.0-4.0","","0","<strong>Cách mô tả nào về ""trái chuối"" nghe tự nhiên hơn?</strong>","sub_sub_noun","banana","trái chuối","","","","","","","","","beautiful","đẹp","small","nhỏ"
"10951.20000001043","","html-slider-response","5","254991","0.0-5.0","","0","<strong>Cách mô tả nào về  ""cái bàn"" nghe tự nhiên hơn?</strong>","int_int_noun","table","cái bàn","","","","","plastic","nhựa","yellow","màu vàng","","","",""
"12138.799999956973","","html-slider-response","6","267133","0.0-6.0","","0","<strong>Cách mô tả nào về ""cái quạt"" nghe tự nhiên hơn?</strong>","sub_int_noun","fan","cái quạt","small","nhỏ","square","hình vuông","","","","","","","",""
"10258.000000030734","","html-slider-response","7","277394","0.0-7.0","","0","<strong>Cách mô tả nào về ""cái bàn"" nghe tự nhiên hơn?</strong>","sub_int_noun","table","cái bàn","small","nhỏ","clean","hình vuông","","","","","","","",""
"22296.500000054948","","html-slider-response","8","299693","0.0-8.0","","6","<strong>Cách mô tả nào về ""cục kẹo"" nghe tự nhiên hơn?</strong>","sub_sub_noun","candy","cục kẹo","","","","","","","","","beautiful","đẹp","bitter","đắng"
"21327.599999960512","","html-slider-response","9","321025","0.0-9.0","","6","<strong>Cách mô tả nào về ""trái ớt"" nghe tự nhiên hơn?</strong>","sub_int_noun","pepper","trái ớt","big","lớn","dirty","dơ","","","","","","","",""
"9847.599999979138","","html-slider-response","10","330876","0.0-10.0","","0","<strong>Cách mô tả nào về ""cái quạt"" nghe tự nhiên hơn?</strong>","sub_sub_noun","fan","cái quạt","","","","","","","","","big","lớn","ugly","xấu"
"10794.300000066869","","html-slider-response","11","341673","0.0-11.0","","0","<strong>Cách mô tả nào về ""cái bàn"" nghe tự nhiên hơn?</strong>","sub_sub_noun","table","cái bàn","","","","","","","","","big","lớn","short","thấp"
"12841.699999989942","","html-slider-response","12","354518","0.0-12.0","","0","<strong>Cách mô tả nào về  ""cái ghế"" nghe tự nhiên hơn?</strong>","int_int_noun","chair","cái ghế","","","","","plastic","nhựa","dirty","dơ","","","",""
"82457.00000005309","","html-slider-response","13","436982","0.0-13.0","","6","<strong>Cách mô tả nào về ""cái xe"" nghe tự nhiên hơn?</strong>","sub_sub_noun","car","cái xe","","","","","","","","","short","thấp","small","nhỏ"
"11450.30000002589","","html-slider-response","14","448434","0.0-14.0","","6","<strong>Cách mô tả nào về ""cái ly"" nghe tự nhiên hơn?</strong>","sub_sub_noun","cup","cái ly","","","","","","","","","short","thấp","small","nhỏ"
"14701.999999932013","","html-slider-response","15","463139","0.0-15.0","","6","<strong>Cách mô tả nào về ""cái quạt"" nghe tự nhiên hơn?</strong>","sub_int_noun","fan","cái quạt","short","thấp","yellow","màu vàng","","","","","","","",""
"11864.700000034645","","html-slider-response","16","475007","0.0-16.0","","0","<strong>Cách mô tả nào về ""cái ly"" nghe tự nhiên hơn?</strong>","sub_int_noun","cup","cái ly","tall","cao","wooden","gỗ","","","","","","","",""
"9447.000000043772","","html-slider-response","17","484457","0.0-17.0","","6","<strong>Cách mô tả nào về  ""cái xe"" nghe tự nhiên hơn?</strong>","int_int_noun","car","cái xe","","","","","clean","sạch","plastic","nhựa","","","",""
"9949.200000031851","","html-slider-response","18","494408","0.0-18.0","","6","<strong>Cách mô tả nào về  ""trái xoài"" nghe tự nhiên hơn?</strong>","int_int_noun","mango","trái xoài","","","","","round","hình tròn","clean","sạch","","","",""
"8240.200000000186","","html-slider-response","19","502651","0.0-19.0","","6","<strong>Cách mô tả nào về  ""cái ly"" nghe tự nhiên hơn?</strong>","int_int_noun","cup","cái ly","","","","","clean","sạch","plastic","nhựa","","","",""
"8783.100000000559","","html-slider-response","20","511435","0.0-20.0","","0","<strong>Cách mô tả nào về ""cái ghế"" nghe tự nhiên hơn?</strong>","sub_sub_noun","chair","cái ghế","","","","","","","","","big","lớn","ugly","xấu"
"10077.30000000447","","html-slider-response","21","521516","0.0-21.0","","0","<strong>Cách mô tả nào về ""trái ớt"" nghe tự nhiên hơn?</strong>","sub_sub_noun","pepper","trái ớt","","","","","","","","","big","lớn","sweet","ngọt"
"15264.499999932013","","html-slider-response","22","536783","0.0-22.0","","0","<strong>Cách mô tả nào về ""xôi"" nghe tự nhiên hơn?</strong>","sub_int_noun","sticky rice","xôi","bitter","đắng","clean","sạch","","","","","","","",""
"12705.19999996759","","html-slider-response","23","549491","0.0-23.0","","6","<strong>Cách mô tả nào về ""cái xe"" nghe tự nhiên hơn?</strong>","sub_int_noun","car","cái xe","big","lớn","clean","sạch","","","","","","","",""
"11279.000000096858","","html-slider-response","24","560773","0.0-24.0","","6","<strong>Cách mô tả nào về  ""trái ớt"" nghe tự nhiên hơn?</strong>","int_int_noun","pepper","trái ớt","","","","","round","hình tròn","yellow","màu vàng","","","",""
"14562.599999946542","","html-slider-response","25","575338","0.0-25.0","","6","<strong>Cách mô tả nào về ""xôi"" nghe tự nhiên hơn?</strong>","sub_int_noun","sticky rice","xôi","sweet","ngọt","red","màu đỏ","","","","","","","",""
"71515.89999999851","","html-slider-response","26","646860","0.0-26.0","","0","<strong>Cách mô tả nào về  ""trái xoài"" nghe tự nhiên hơn?</strong>","int_int_noun","mango","trái xoài","","","","","round","hình tròn","red","màu đỏ","","","",""
"9231.20000003837","","html-slider-response","27","656094","0.0-27.0","","6","<strong>Cách mô tả nào về  ""cục kẹo"" nghe tự nhiên hơn?</strong>","int_int_noun","candy","cục kẹo","","","","","dirty","dơ","red","màu đỏ","","","",""
"14886.700000031851","","html-slider-response","28","670983","0.0-28.0","","0","<strong>Cách mô tả nào về  ""trái xoài"" nghe tự nhiên hơn?</strong>","int_int_noun","mango","trái xoài","","","","","yellow","màu vàng","clean","sạch","","","",""
"10353.600000031292","","html-slider-response","29","681338","0.0-29.0","","0","<strong>Cách mô tả nào về ""trái chuối"" nghe tự nhiên hơn?</strong>","sub_sub_noun","banana","trái chuối","","","","","","","","","small","nhỏ","ugly","xấu"
"12111.199999926612","","html-slider-response","30","693452","0.0-30.0","","6","<strong>Cách mô tả nào về ""xôi"" nghe tự nhiên hơn?</strong>","sub_sub_noun","sticky rice","xôi","","","","","","","","","","lớn","sweet","ngọt"
"16280.90000001248","","html-slider-response","31","709737","0.0-31.0","","6","<strong>Cách mô tả nào về ""cục kẹo"" nghe tự nhiên hơn?</strong>","sub_int_noun","candy","cục kẹo","sweet","ngọt","square","hình vuông","","","","","","","",""
