"rt","url","trial_type","trial_index","time_elapsed","internal_node_id","view_history","response","stimulus","data_type","noun_type","viet_noun_type","sub_type_1","viet_sub_type_1","sub_type_2","viet_sub_type_2","int_type_1","viet_int_type_1","int_type_2","viet_int_type_2","sub_type","viet_sub_type","int_type","viet_int_type"
"11120","viet_consent_1.html","external-html","0","11177","0.0-0.0","","","","","","","","","","","","","","","","","",""
"16298","","instructions","1","27478","0.0-1.0","[{""page_index"":0,""viewing_time"":2914},{""page_index"":1,""viewing_time"":9135},{""page_index"":2,""viewing_time"":4248}]","","","","","","","","","","","","","","","","",""
"34009","","html-slider-response","2","61492","0.0-2.0","","0","<strong>Cách mô tả nào về ""cái xe"" nghe tự nhiên hơn?</strong>","sub_sub_noun","car","cái xe","small","nhỏ","ugly","xấu","","","","","","","",""
"43364","","html-slider-response","3","104858","0.0-3.0","","6","<strong>Cách mô tả nào về  ""cục kẹo"" nghe tự nhiên hơn?</strong>","int_int_noun","candy","cục kẹo","","","","","yellow","màu vàng","round","hình tròn","","","",""
"7559","","html-slider-response","4","112418","0.0-4.0","","0","<strong>Cách mô tả nào về  ""cái bàn"" nghe tự nhiên hơn?</strong>","int_int_noun","table","cái bàn","","","","","wooden","gỗ","round","dơ","","","",""
"38268","","html-slider-response","5","150690","0.0-5.0","","0","<strong>Cách mô tả nào về ""trái ớt"" nghe tự nhiên hơn?</strong>","sub_sub_noun","pepper","trái ớt","bitter","đắng","beautiful","đẹp","","","","","","","",""
"11164","","html-slider-response","6","161857","0.0-6.0","","0","<strong>Cách mô tả nào về ""trái chuối"" nghe tự nhiên hơn?</strong>","sub_sub_noun","banana","trái chuối","small","nhỏ","bitter","đắng","","","","","","","",""
"8500","","html-slider-response","7","170361","0.0-7.0","","0","<strong>Cách mô tả nào về ""trái xoài"" nghe tự nhiên hơn?</strong>","sub_int_noun","mango","trái xoài","","","","","","","","","big","lớn","dirty","dơ"
"6629","","html-slider-response","8","176993","0.0-8.0","","6","<strong>Cách mô tả nào về  ""cục kẹo"" nghe tự nhiên hơn?</strong>","int_int_noun","candy","cục kẹo","","","","","dirty","dơ","square","hình vuông","","","",""
"12895","","html-slider-response","9","189889","0.0-9.0","","6","<strong>Cách mô tả nào về ""cái ghế"" nghe tự nhiên hơn?</strong>","sub_int_noun","chair","cái ghế","","","","","","","","","small","nhỏ","round","hình tròn"
"9981","","html-slider-response","10","199872","0.0-10.0","","0","<strong>Cách mô tả nào về  ""cục kẹo"" nghe tự nhiên hơn?</strong>","int_int_noun","candy","cục kẹo","","","","","yellow","màu vàng","dirty","dơ","","","",""
"7437","","html-slider-response","11","207312","0.0-11.0","","0","<strong>Cách mô tả nào về  ""cái ly"" nghe tự nhiên hơn?</strong>","int_int_noun","cup","cái ly","","","","","plastic","nhựa","square","hình vuông","","","",""
"7447","","html-slider-response","12","214760","0.0-12.0","","0","<strong>Cách mô tả nào về ""cái quạt"" nghe tự nhiên hơn?</strong>","sub_int_noun","fan","cái quạt","","","","","","","","","small","nhỏ","square","hình vuông"
"9662","","html-slider-response","13","224423","0.0-13.0","","0","<strong>Cách mô tả nào về ""trái ớt"" nghe tự nhiên hơn?</strong>","sub_int_noun","pepper","trái ớt","","","","","","","","","ugly","xấu","square","hình vuông"
"5774","","html-slider-response","14","230200","0.0-14.0","","0","<strong>Cách mô tả nào về ""cái ly"" nghe tự nhiên hơn?</strong>","sub_sub_noun","cup","cái ly","short","thấp","ugly","xấu","","","","","","","",""
"6046","","html-slider-response","15","236247","0.0-15.0","","6","<strong>Cách mô tả nào về  ""trái xoài"" nghe tự nhiên hơn?</strong>","int_int_noun","mango","trái xoài","","","","","clean","sạch","red","màu đỏ","","","",""
"5231","","html-slider-response","16","241480","0.0-16.0","","0","<strong>Cách mô tả nào về ""trái xoài"" nghe tự nhiên hơn?</strong>","sub_int_noun","mango","trái xoài","","","","","","","","","small","nhỏ","square","hình vuông"
"5614","","html-slider-response","17","247095","0.0-17.0","","6","<strong>Cách mô tả nào về  ""trái chuối"" nghe tự nhiên hơn?</strong>","int_int_noun","banana","trái chuối","","","","","clean","sạch","yellow","màu vàng","","","",""
"10303","","html-slider-response","18","257400","0.0-18.0","","6","<strong>Cách mô tả nào về ""cái bàn"" nghe tự nhiên hơn?</strong>","sub_sub_noun","table","cái bàn","ugly","xấu","tall","cao","","","","","","","",""
"5878","","html-slider-response","19","263279","0.0-19.0","","6","<strong>Cách mô tả nào về  ""trái chuối"" nghe tự nhiên hơn?</strong>","int_int_noun","banana","trái chuối","","","","","dirty","dơ","yellow","màu vàng","","","",""
"11208","","html-slider-response","20","274487","0.0-20.0","","0","<strong>Cách mô tả nào về ""cái xe"" nghe tự nhiên hơn?</strong>","sub_sub_noun","car","cái xe","small","nhỏ","tall","cao","","","","","","","",""
"12469","","html-slider-response","21","286958","0.0-21.0","","6","<strong>Cách mô tả nào về ""cái quạt"" nghe tự nhiên hơn?</strong>","sub_int_noun","fan","cái quạt","","","","","","","","","beautiful","đẹp","dirty","dơ"
"9102","","html-slider-response","22","296062","0.0-22.0","","6","<strong>Cách mô tả nào về ""xôi"" nghe tự nhiên hơn?</strong>","sub_int_noun","sticky rice","xôi","","","","","","","","","sweet","ngọt","round","hình tròn"
"6797","","html-slider-response","23","302861","0.0-23.0","","6","<strong>Cách mô tả nào về ""cái quạt"" nghe tự nhiên hơn?</strong>","sub_int_noun","fan","cái quạt","","","","","","","","","short","thấp","square","hình vuông"
"16317","","html-slider-response","24","319182","0.0-24.0","","0","<strong>Cách mô tả nào về ""xôi"" nghe tự nhiên hơn?</strong>","sub_sub_noun","sticky rice","xôi","bitter","đắng","ugly","xấu","","","","","","","",""
"5878","","html-slider-response","25","325062","0.0-25.0","","6","<strong>Cách mô tả nào về ""cái xe"" nghe tự nhiên hơn?</strong>","sub_int_noun","car","cái xe","","","","","","","","","short","thấp","red","màu đỏ"
"9470","","html-slider-response","26","334533","0.0-26.0","","0","<strong>Cách mô tả nào về ""cái ly"" nghe tự nhiên hơn?</strong>","sub_sub_noun","cup","cái ly","tall","cao","big","lớn","","","","","","","",""
"4382","","html-slider-response","27","338917","0.0-27.0","","6","<strong>Cách mô tả nào về ""trái ớt"" nghe tự nhiên hơn?</strong>","sub_sub_noun","pepper","trái ớt","sweet","ngọt","beautiful","đẹp","","","","","","","",""
"6917","","html-slider-response","28","345837","0.0-28.0","","6","<strong>Cách mô tả nào về ""cái ghế"" nghe tự nhiên hơn?</strong>","sub_int_noun","chair","cái ghế","","","","","","","","","small","nhỏ","plastic","nhựa"
"5486","","html-slider-response","29","351325","0.0-29.0","","6","<strong>Cách mô tả nào về  ""cái ghế"" nghe tự nhiên hơn?</strong>","int_int_noun","chair","cái ghế","","","","","round","hình tròn","plastic","nhựa","","","",""
"5510","","html-slider-response","30","356836","0.0-30.0","","0","<strong>Cách mô tả nào về ""xôi"" nghe tự nhiên hơn?</strong>","sub_sub_noun","sticky rice","xôi","bitter","đắng","ugly","xấu","","","","","","","",""
"5951","","html-slider-response","31","362789","0.0-31.0","","0","<strong>Cách mô tả nào về  ""cái bàn"" nghe tự nhiên hơn?</strong>","int_int_noun","table","cái bàn","","","","","dirty","hình tròn","square","sạch","","","",""
