"rt","url","trial_type","trial_index","time_elapsed","internal_node_id","view_history","response","stimulus","data_type","noun_type","viet_noun_type","sub_type_1","viet_sub_type_1","sub_type_2","viet_sub_type_2","int_type_1","viet_int_type_1","int_type_2","viet_int_type_2","sub_type","viet_sub_type","int_type","viet_int_type"
"25882","viet_consent_1.html","external-html","0","25920","0.0-0.0","","","","","","","","","","","","","","","","","",""
"15453.999999999996","","instructions","1","41376","0.0-1.0","[{""page_index"":0,""viewing_time"":2495.9999999999964},{""page_index"":1,""viewing_time"":10044},{""page_index"":2,""viewing_time"":2912.0000000000073}]","","","","","","","","","","","","","","","","",""
"50265","","html-slider-response","2","91651","0.0-2.0","","5","<strong>Cách mô tả nào về ""cái bàn"" nghe tự nhiên hơn?</strong>","sub_sub_noun","table","cái bàn","short","thấp","small","nhỏ","","","","","","","",""
"12702","","html-slider-response","3","104358","0.0-3.0","","0","<strong>Cách mô tả nào về  ""cái ghế"" nghe tự nhiên hơn?</strong>","int_int_noun","chair","cái ghế","","","","","wooden","gỗ","square","hình vuông","","","",""
"14866","","html-slider-response","4","119228","0.0-4.0","","4","<strong>Cách mô tả nào về ""trái chuối"" nghe tự nhiên hơn?</strong>","sub_int_noun","banana","trái chuối","","","","","","","","","small","nhỏ","clean","sạch"
"12669","","html-slider-response","5","131899","0.0-5.0","","0","<strong>Cách mô tả nào về  ""cái xe"" nghe tự nhiên hơn?</strong>","int_int_noun","car","cái xe","","","","","plastic","nhựa","yellow","màu vàng","","","",""
"10903","","html-slider-response","6","142806","0.0-6.0","","0","<strong>Cách mô tả nào về  ""cái ghế"" nghe tự nhiên hơn?</strong>","int_int_noun","chair","cái ghế","","","","","plastic","nhựa","yellow","màu vàng","","","",""
"7448","","html-slider-response","7","150256","0.0-7.0","","6","<strong>Cách mô tả nào về  ""cục kẹo"" nghe tự nhiên hơn?</strong>","int_int_noun","candy","cục kẹo","","","","","red","màu đỏ","dirty","dơ","","","",""
"8622","","html-slider-response","8","158882","0.0-8.0","","6","<strong>Cách mô tả nào về ""trái xoài"" nghe tự nhiên hơn?</strong>","sub_sub_noun","mango","trái xoài","ugly","xấu","small","nhỏ","","","","","","","",""
"6004","","html-slider-response","9","164892","0.0-9.0","","0","<strong>Cách mô tả nào về ""trái chuối"" nghe tự nhiên hơn?</strong>","sub_int_noun","banana","trái chuối","","","","","","","","","beautiful","đẹp","clean","sạch"
"28761","","html-slider-response","10","193654","0.0-10.0","","0","<strong>Cách mô tả nào về ""trái ớt"" nghe tự nhiên hơn?</strong>","sub_sub_noun","pepper","trái ớt","big","lớn","sweet","ngọt","","","","","","","",""
"14154","","html-slider-response","11","207802","0.0-11.0","","4","<strong>Cách mô tả nào về ""cái bàn"" nghe tự nhiên hơn?</strong>","sub_int_noun","table","cái bàn","","","","","","","","","small","nhỏ","round","dơ"
"7664.000000000029","","html-slider-response","12","215466","0.0-12.0","","5","<strong>Cách mô tả nào về ""trái chuối"" nghe tự nhiên hơn?</strong>","sub_sub_noun","banana","trái chuối","beautiful","đẹp","big","lớn","","","","","","","",""
"5336","","html-slider-response","13","220804","0.0-13.0","","0","<strong>Cách mô tả nào về  ""cái ly"" nghe tự nhiên hơn?</strong>","int_int_noun","cup","cái ly","","","","","round","hình tròn","red","màu đỏ","","","",""
"6908","","html-slider-response","14","227714","0.0-14.0","","0","<strong>Cách mô tả nào về ""trái xoài"" nghe tự nhiên hơn?</strong>","sub_sub_noun","mango","trái xoài","small","nhỏ","sweet","ngọt","","","","","","","",""
"6978.000000000029","","html-slider-response","15","234700","0.0-15.0","","0","<strong>Cách mô tả nào về ""cái xe"" nghe tự nhiên hơn?</strong>","sub_sub_noun","car","cái xe","short","thấp","ugly","xấu","","","","","","","",""
"6234.999999999971","","html-slider-response","16","240940","0.0-16.0","","6","<strong>Cách mô tả nào về ""cái ly"" nghe tự nhiên hơn?</strong>","sub_int_noun","cup","cái ly","","","","","","","","","short","thấp","dirty","dơ"
"81080.00000000006","","html-slider-response","17","854633","0.0-17.0","","2","<strong>Cách mô tả nào về ""cái quạt"" nghe tự nhiên hơn?</strong>","sub_sub_noun","fan","cái quạt","big","lớn","beautiful","đẹp","","","","","","","",""
"17405","","html-slider-response","18","872051","0.0-18.0","","2","<strong>Cách mô tả nào về  ""trái ớt"" nghe tự nhiên hơn?</strong>","int_int_noun","pepper","trái ớt","","","","","red","màu đỏ","square","hình vuông","","","",""
"12814","","html-slider-response","19","884870","0.0-19.0","","5","<strong>Cách mô tả nào về ""cái quạt"" nghe tự nhiên hơn?</strong>","sub_int_noun","fan","cái quạt","","","","","","","","","ugly","xấu","yellow","màu vàng"
"16096","","html-slider-response","20","900970","0.0-20.0","","1","<strong>Cách mô tả nào về  ""xôi"" nghe tự nhiên hơn?</strong>","int_int_noun","sticky rice","xôi","","","","","round","hình tròn","yellow","màu vàng","","","",""
"11897","","html-slider-response","21","912871","0.0-21.0","","5","<strong>Cách mô tả nào về ""trái ớt"" nghe tự nhiên hơn?</strong>","sub_int_noun","pepper","trái ớt","","","","","","","","","small","nhỏ","dirty","dơ"
"15242","","html-slider-response","22","928117","0.0-22.0","","4","<strong>Cách mô tả nào về ""xôi"" nghe tự nhiên hơn?</strong>","sub_int_noun","sticky rice","xôi","","","","","","","","","bitter","đắng","yellow","màu vàng"
"6082","","html-slider-response","23","934203","0.0-23.0","","4","<strong>Cách mô tả nào về ""cái quạt"" nghe tự nhiên hơn?</strong>","sub_sub_noun","fan","cái quạt","big","lớn","tall","cao","","","","","","","",""
"14422","","html-slider-response","24","948630","0.0-24.0","","1","<strong>Cách mô tả nào về  ""trái xoài"" nghe tự nhiên hơn?</strong>","int_int_noun","mango","trái xoài","","","","","clean","sạch","round","hình tròn","","","",""
"60710","","html-slider-response","25","1101624","0.0-25.0","","1","<strong>Cách mô tả nào về ""cái ly"" nghe tự nhiên hơn?</strong>","sub_int_noun","cup","cái ly","","","","","","","","","big","lớn","wooden","gỗ"
"9835.999999999942","","html-slider-response","26","1111473","0.0-26.0","","1","<strong>Cách mô tả nào về  ""cái ghế"" nghe tự nhiên hơn?</strong>","int_int_noun","chair","cái ghế","","","","","wooden","gỗ","red","màu đỏ","","","",""
"6215","","html-slider-response","27","1117692","0.0-27.0","","4","<strong>Cách mô tả nào về ""xôi"" nghe tự nhiên hơn?</strong>","sub_int_noun","sticky rice","xôi","","","","","","","","","bitter","đắng","clean","sạch"
"6757","","html-slider-response","28","1124455","0.0-28.0","","4","<strong>Cách mô tả nào về ""cái bàn"" nghe tự nhiên hơn?</strong>","sub_int_noun","table","cái bàn","","","","","","","","","tall","cao","clean","hình vuông"
"9982","","html-slider-response","29","1134442","0.0-29.0","","1","<strong>Cách mô tả nào về ""cục kẹo"" nghe tự nhiên hơn?</strong>","sub_sub_noun","candy","cục kẹo","big","lớn","bitter","đắng","","","","","","","",""
"62036","","html-slider-response","30","1196480","0.0-30.0","","2","<strong>Cách mô tả nào về ""cái xe"" nghe tự nhiên hơn?</strong>","sub_sub_noun","car","cái xe","big","lớn","ugly","xấu","","","","","","","",""
"13166.000000000116","","html-slider-response","31","1209650","0.0-31.0","","4","<strong>Cách mô tả nào về  ""cục kẹo"" nghe tự nhiên hơn?</strong>","int_int_noun","candy","cục kẹo","","","","","dirty","dơ","square","hình vuông","","","",""
