"rt","url","trial_type","trial_index","time_elapsed","internal_node_id","view_history","response","stimulus","data_type","noun_type","viet_noun_type","sub_type_1","viet_sub_type_1","sub_type_2","viet_sub_type_2","sub_type","viet_sub_type","int_type","viet_int_type","int_type_1","viet_int_type_1","int_type_2","viet_int_type_2"
"18982.284999918193","viet_consent_1.html","external-html","0","19199","0.0-0.0","","","","","","","","","","","","","","","","","",""
"15862.280000001192","","instructions","1","35065","0.0-1.0","[{""page_index"":0,""viewing_time"":3308.4500001277775},{""page_index"":1,""viewing_time"":9583.319999976084},{""page_index"":2,""viewing_time"":2968.5100000351667}]","","","","","","","","","","","","","","","","",""
"18475.835000164807","","html-slider-response","2","53546","0.0-2.0","","6","<strong>Cách mô tả nào về ""cục kẹo"" nghe tự nhiên hơn?</strong>","sub_sub_noun","candy","cục kẹo","beautiful","đẹp","small","nhỏ","","","","","","","",""
"11091.754999943078","","html-slider-response","3","64640","0.0-3.0","","6","<strong>Cách mô tả nào về ""trái chuối"" nghe tự nhiên hơn?</strong>","sub_int_noun","banana","trái chuối","","","","","ugly","xấu","yellow","màu vàng","","","",""
"9989.56000013277","","html-slider-response","4","74632","0.0-4.0","","6","<strong>Cách mô tả nào về  ""cái quạt"" nghe tự nhiên hơn?</strong>","int_int_noun","fan","cái quạt","","","","","","","","","square","hình vuông","yellow","màu vàng"
"10069.940000073984","","html-slider-response","5","84704","0.0-5.0","","0","<strong>Cách mô tả nào về ""cái xe"" nghe tự nhiên hơn?</strong>","sub_int_noun","car","cái xe","","","","","ugly","xấu","wooden","gỗ","","","",""
"8711.63500007242","","html-slider-response","6","93418","0.0-6.0","","6","<strong>Cách mô tả nào về  ""trái xoài"" nghe tự nhiên hơn?</strong>","int_int_noun","mango","trái xoài","","","","","","","","","red","màu đỏ","clean","sạch"
"11915.700000012293","","html-slider-response","7","105336","0.0-7.0","","0","<strong>Cách mô tả nào về ""trái chuối"" nghe tự nhiên hơn?</strong>","sub_sub_noun","banana","trái chuối","ugly","xấu","small","nhỏ","","","","","","","",""
"14941.785000031814","","html-slider-response","8","120280","0.0-8.0","","0","<strong>Cách mô tả nào về  ""cái ghế"" nghe tự nhiên hơn?</strong>","int_int_noun","chair","cái ghế","","","","","","","","","red","màu đỏ","dirty","dơ"
"8893.665000097826","","html-slider-response","9","129176","0.0-9.0","","0","<strong>Cách mô tả nào về ""trái ớt"" nghe tự nhiên hơn?</strong>","sub_sub_noun","pepper","trái ớt","small","nhỏ","bitter","đắng","","","","","","","",""
"9413.550000172108","","html-slider-response","10","138592","0.0-10.0","","6","<strong>Cách mô tả nào về ""trái xoài"" nghe tự nhiên hơn?</strong>","sub_int_noun","mango","trái xoài","","","","","ugly","xấu","round","hình tròn","","","",""
"8389.644999988377","","html-slider-response","11","146984","0.0-11.0","","0","<strong>Cách mô tả nào về ""cái bàn"" nghe tự nhiên hơn?</strong>","sub_sub_noun","table","cái bàn","short","thấp","beautiful","đẹp","","","","","","","",""
"6709.534999914467","","html-slider-response","12","153696","0.0-12.0","","6","<strong>Cách mô tả nào về ""cái ly"" nghe tự nhiên hơn?</strong>","sub_sub_noun","cup","cái ly","short","thấp","big","lớn","","","","","","","",""
"13615.460000000894","","html-slider-response","13","167314","0.0-13.0","","0","<strong>Cách mô tả nào về  ""cái ghế"" nghe tự nhiên hơn?</strong>","int_int_noun","chair","cái ghế","","","","","","","","","red","màu đỏ","round","hình tròn"
"7236.430000048131","","html-slider-response","14","174552","0.0-14.0","","6","<strong>Cách mô tả nào về  ""cục kẹo"" nghe tự nhiên hơn?</strong>","int_int_noun","candy","cục kẹo","","","","","","","","","clean","sạch","yellow","màu vàng"
"8693.740000016987","","html-slider-response","15","183244","0.0-15.0","","6","<strong>Cách mô tả nào về ""trái ớt"" nghe tự nhiên hơn?</strong>","sub_sub_noun","pepper","trái ớt","beautiful","đẹp","small","nhỏ","","","","","","","",""
"9101.94500000216","","html-slider-response","16","192349","0.0-16.0","","6","<strong>Cách mô tả nào về ""xôi"" nghe tự nhiên hơn?</strong>","sub_int_noun","sticky rice","xôi","","","","","ugly","xấu","round","hình tròn","","","",""
"11557.804999873042","","html-slider-response","17","203909","0.0-17.0","","0","<strong>Cách mô tả nào về  ""cái bàn"" nghe tự nhiên hơn?</strong>","int_int_noun","table","cái bàn","","","","","","","","","yellow","màu vàng","square","sạch"
"6574.509999947622","","html-slider-response","18","210485","0.0-18.0","","0","<strong>Cách mô tả nào về  ""trái ớt"" nghe tự nhiên hơn?</strong>","int_int_noun","pepper","trái ớt","","","","","","","","","red","màu đỏ","dirty","dơ"
"6389.104999834672","","html-slider-response","19","216877","0.0-19.0","","0","<strong>Cách mô tả nào về  ""cái ghế"" nghe tự nhiên hơn?</strong>","int_int_noun","chair","cái ghế","","","","","","","","","plastic","nhựa","clean","sạch"
"7205.66500001587","","html-slider-response","20","224085","0.0-20.0","","0","<strong>Cách mô tả nào về  ""cái xe"" nghe tự nhiên hơn?</strong>","int_int_noun","car","cái xe","","","","","","","","","square","hình vuông","clean","sạch"
"6749.764999840409","","html-slider-response","21","230837","0.0-21.0","","0","<strong>Cách mô tả nào về ""cái xe"" nghe tự nhiên hơn?</strong>","sub_sub_noun","car","cái xe","big","lớn","short","thấp","","","","","","","",""
"11877.79500009492","","html-slider-response","22","242720","0.0-22.0","","6","<strong>Cách mô tả nào về ""cái quạt"" nghe tự nhiên hơn?</strong>","sub_int_noun","fan","cái quạt","","","","","big","lớn","yellow","màu vàng","","","",""
"13405.500000109896","","html-slider-response","23","256128","0.0-23.0","","0","<strong>Cách mô tả nào về ""trái chuối"" nghe tự nhiên hơn?</strong>","sub_int_noun","banana","trái chuối","","","","","big","lớn","yellow","màu vàng","","","",""
"8126.175000099465","","html-slider-response","24","264256","0.0-24.0","","0","<strong>Cách mô tả nào về  ""cái ly"" nghe tự nhiên hơn?</strong>","int_int_noun","cup","cái ly","","","","","","","","","round","hình tròn","red","màu đỏ"
"14975.475000217557","","html-slider-response","25","279234","0.0-25.0","","0","<strong>Cách mô tả nào về ""xôi"" nghe tự nhiên hơn?</strong>","sub_int_noun","sticky rice","xôi","","","","","bitter","đắng","yellow","màu vàng","","","",""
"7972.294999985024","","html-slider-response","26","287208","0.0-26.0","","6","<strong>Cách mô tả nào về ""trái xoài"" nghe tự nhiên hơn?</strong>","sub_int_noun","mango","trái xoài","","","","","beautiful","đẹp","dirty","dơ","","","",""
"8021.599999861792","","html-slider-response","27","295232","0.0-27.0","","6","<strong>Cách mô tả nào về ""cái ly"" nghe tự nhiên hơn?</strong>","sub_int_noun","cup","cái ly","","","","","small","nhỏ","plastic","nhựa","","","",""
"8213.590000057593","","html-slider-response","28","303449","0.0-28.0","","6","<strong>Cách mô tả nào về ""cái quạt"" nghe tự nhiên hơn?</strong>","sub_int_noun","fan","cái quạt","","","","","beautiful","đẹp","plastic","nhựa","","","",""
"11277.835000073537","","html-slider-response","29","314729","0.0-29.0","","6","<strong>Cách mô tả nào về ""xôi"" nghe tự nhiên hơn?</strong>","sub_sub_noun","sticky rice","xôi","beautiful","đẹp","","lớn","","","","","","","",""
"4765.654999995604","","html-slider-response","30","319497","0.0-30.0","","6","<strong>Cách mô tả nào về ""cục kẹo"" nghe tự nhiên hơn?</strong>","sub_sub_noun","candy","cục kẹo","beautiful","đẹp","small","nhỏ","","","","","","","",""
"8629.579999949783","","html-slider-response","31","328129","0.0-31.0","","0","<strong>Cách mô tả nào về ""cái bàn"" nghe tự nhiên hơn?</strong>","sub_sub_noun","table","cái bàn","big","lớn","beautiful","đẹp","","","","","","","",""
