"rt","url","trial_type","trial_index","time_elapsed","internal_node_id","view_history","response","stimulus","data_type","noun_type","viet_noun_type","int_type_1","viet_int_type_1","int_type_2","viet_int_type_2","sub_type_1","viet_sub_type_1","sub_type_2","viet_sub_type_2","sub_type","viet_sub_type","int_type","viet_int_type"
"193573.454999947","viet_consent_1.html","external-html","0","193736","0.0-0.0","","","","","","","","","","","","","","","","","",""
"8738.98000002373","","instructions","1","202477","0.0-1.0","[{""page_index"":0,""viewing_time"":5562.444999930449},{""page_index"":1,""viewing_time"":1863.9100000727922},{""page_index"":2,""viewing_time"":1311.9099999312311}]","","","","","","","","","","","","","","","","",""
"8645.950000034645","","html-slider-response","2","211125","0.0-2.0","","0","<strong>Cách mô tả nào về  ""cục kẹo"" nghe tự nhiên hơn?</strong>","int_int_noun","candy","cục kẹo","dirty","dơ","round","hình tròn","","","","","","","",""
"7094.385000062175","","html-slider-response","3","218221","0.0-3.0","","0","<strong>Cách mô tả nào về  ""cái quạt"" nghe tự nhiên hơn?</strong>","int_int_noun","fan","cái quạt","plastic","nhựa","yellow","màu vàng","","","","","","","",""
"9646.569999982603","","html-slider-response","4","227869","0.0-4.0","","6","<strong>Cách mô tả nào về ""xôi"" nghe tự nhiên hơn?</strong>","sub_sub_noun","sticky rice","xôi","","","","","ugly","xấu","","nhỏ","","","",""
"6437.679999973625","","html-slider-response","5","234309","0.0-5.0","","6","<strong>Cách mô tả nào về ""cái quạt"" nghe tự nhiên hơn?</strong>","sub_int_noun","fan","cái quạt","","","","","","","","","beautiful","đẹp","wooden","gỗ"
"9710.725000011735","","html-slider-response","6","244020","0.0-6.0","","6","<strong>Cách mô tả nào về  ""cái ly"" nghe tự nhiên hơn?</strong>","int_int_noun","cup","cái ly","square","hình vuông","wooden","gỗ","","","","","","","",""
"8190.769999986514","","html-slider-response","7","252212","0.0-7.0","","6","<strong>Cách mô tả nào về ""trái ớt"" nghe tự nhiên hơn?</strong>","sub_int_noun","pepper","trái ớt","","","","","","","","","ugly","xấu","yellow","màu vàng"
"6407.3349999962375","","html-slider-response","8","258621","0.0-8.0","","6","<strong>Cách mô tả nào về ""cái bàn"" nghe tự nhiên hơn?</strong>","sub_sub_noun","table","cái bàn","","","","","ugly","xấu","short","thấp","","","",""
"8774.169999989681","","html-slider-response","9","267396","0.0-9.0","","0","<strong>Cách mô tả nào về ""trái chuối"" nghe tự nhiên hơn?</strong>","sub_int_noun","banana","trái chuối","","","","","","","","","bitter","đắng","yellow","màu vàng"
"7254.865000024438","","html-slider-response","10","274652","0.0-10.0","","6","<strong>Cách mô tả nào về ""xôi"" nghe tự nhiên hơn?</strong>","sub_sub_noun","sticky rice","xôi","","","","","ugly","xấu","","lớn","","","",""
"8622.975000063889","","html-slider-response","11","283277","0.0-11.0","","6","<strong>Cách mô tả nào về ""trái xoài"" nghe tự nhiên hơn?</strong>","sub_sub_noun","mango","trái xoài","","","","","ugly","xấu","big","lớn","","","",""
"7630.600000033155","","html-slider-response","12","290908","0.0-12.0","","6","<strong>Cách mô tả nào về ""cái quạt"" nghe tự nhiên hơn?</strong>","sub_int_noun","fan","cái quạt","","","","","","","","","short","thấp","square","hình vuông"
"5638.685000012629","","html-slider-response","13","296548","0.0-13.0","","6","<strong>Cách mô tả nào về ""cái xe"" nghe tự nhiên hơn?</strong>","sub_sub_noun","car","cái xe","","","","","short","thấp","small","nhỏ","","","",""
"5638.879999984056","","html-slider-response","14","302188","0.0-14.0","","6","<strong>Cách mô tả nào về ""cái bàn"" nghe tự nhiên hơn?</strong>","sub_sub_noun","table","cái bàn","","","","","tall","cao","beautiful","đẹp","","","",""
"6694.684999994934","","html-slider-response","15","308884","0.0-15.0","","6","<strong>Cách mô tả nào về  ""cục kẹo"" nghe tự nhiên hơn?</strong>","int_int_noun","candy","cục kẹo","dirty","dơ","round","hình tròn","","","","","","","",""
"8047.299999976531","","html-slider-response","16","316932","0.0-16.0","","0","<strong>Cách mô tả nào về  ""cái ghế"" nghe tự nhiên hơn?</strong>","int_int_noun","chair","cái ghế","plastic","nhựa","round","hình tròn","","","","","","","",""
"12982.260000077076","","html-slider-response","17","329916","0.0-17.0","","6","<strong>Cách mô tả nào về  ""trái xoài"" nghe tự nhiên hơn?</strong>","int_int_noun","mango","trái xoài","yellow","màu vàng","square","hình vuông","","","","","","","",""
"4590.86999995634","","html-slider-response","18","334508","0.0-18.0","","6","<strong>Cách mô tả nào về  ""cái bàn"" nghe tự nhiên hơn?</strong>","int_int_noun","table","cái bàn","yellow","màu vàng","plastic","nhựa","","","","","","","",""
"7974.715000018477","","html-slider-response","19","342483","0.0-19.0","","6","<strong>Cách mô tả nào về  ""cục kẹo"" nghe tự nhiên hơn?</strong>","int_int_noun","candy","cục kẹo","red","màu đỏ","square","hình vuông","","","","","","","",""
"7127.089999965392","","html-slider-response","20","349612","0.0-20.0","","0","<strong>Cách mô tả nào về ""trái ớt"" nghe tự nhiên hơn?</strong>","sub_sub_noun","pepper","trái ớt","","","","","small","nhỏ","ugly","xấu","","","",""
"8558.574999915436","","html-slider-response","21","358171","0.0-21.0","","6","<strong>Cách mô tả nào về ""xôi"" nghe tự nhiên hơn?</strong>","sub_sub_noun","sticky rice","xôi","","","","","ugly","xấu","","nhỏ","","","",""
"6239.105000044219","","html-slider-response","22","364411","0.0-22.0","","6","<strong>Cách mô tả nào về ""cái xe"" nghe tự nhiên hơn?</strong>","sub_int_noun","car","cái xe","","","","","","","","","big","lớn","dirty","dơ"
"5646.665000007488","","html-slider-response","23","370059","0.0-23.0","","6","<strong>Cách mô tả nào về ""trái chuối"" nghe tự nhiên hơn?</strong>","sub_int_noun","banana","trái chuối","","","","","","","","","bitter","đắng","yellow","màu vàng"
"12191.004999913275","","html-slider-response","24","382251","0.0-24.0","","0","<strong>Cách mô tả nào về ""cái xe"" nghe tự nhiên hơn?</strong>","sub_int_noun","car","cái xe","","","","","","","","","big","lớn","wooden","gỗ"
"20294.599999906495","","html-slider-response","25","402547","0.0-25.0","","0","<strong>Cách mô tả nào về ""trái chuối"" nghe tự nhiên hơn?</strong>","sub_int_noun","banana","trái chuối","","","","","","","","","bitter","đắng","clean","sạch"
"6447.07999995444","","html-slider-response","26","408995","0.0-26.0","","6","<strong>Cách mô tả nào về  ""cái ghế"" nghe tự nhiên hơn?</strong>","int_int_noun","chair","cái ghế","square","hình vuông","dirty","dơ","","","","","","","",""
"6430.159999988973","","html-slider-response","27","415427","0.0-27.0","","6","<strong>Cách mô tả nào về ""cái ly"" nghe tự nhiên hơn?</strong>","sub_int_noun","cup","cái ly","","","","","","","","","tall","cao","red","màu đỏ"
"6126.7900000093505","","html-slider-response","28","421555","0.0-28.0","","6","<strong>Cách mô tả nào về ""trái ớt"" nghe tự nhiên hơn?</strong>","sub_sub_noun","pepper","trái ớt","","","","","sweet","ngọt","big","lớn","","","",""
"7158.9149999199435","","html-slider-response","29","428715","0.0-29.0","","6","<strong>Cách mô tả nào về  ""cái ghế"" nghe tự nhiên hơn?</strong>","int_int_noun","chair","cái ghế","square","hình vuông","red","màu đỏ","","","","","","","",""
"8062.634999980219","","html-slider-response","30","436779","0.0-30.0","","0","<strong>Cách mô tả nào về ""trái xoài"" nghe tự nhiên hơn?</strong>","sub_sub_noun","mango","trái xoài","","","","","small","nhỏ","beautiful","đẹp","","","",""
"13551.00500001572","","html-slider-response","31","450331","0.0-31.0","","0","<strong>Cách mô tả nào về ""cái ly"" nghe tự nhiên hơn?</strong>","sub_int_noun","cup","cái ly","","","","","","","","","small","nhỏ","yellow","màu vàng"
