"rt","url","trial_type","trial_index","time_elapsed","internal_node_id","view_history","response","stimulus","data_type","noun_type","viet_noun_type","sub_type_1","viet_sub_type_1","sub_type_2","viet_sub_type_2","int_type_1","viet_int_type_1","int_type_2","viet_int_type_2","sub_type","viet_sub_type","int_type","viet_int_type"
"21196","viet_consent_1.html","external-html","0","21354","0.0-0.0","","","","","","","","","","","","","","","","","",""
"20884","","instructions","1","42240","0.0-1.0","[{""page_index"":0,""viewing_time"":2744},{""page_index"":1,""viewing_time"":15600},{""page_index"":2,""viewing_time"":2538}]","","","","","","","","","","","","","","","","",""
"25594","","html-slider-response","2","67885","0.0-2.0","","4","<strong>Cách mô tả nào về ""trái ớt"" nghe tự nhiên hơn?</strong>","sub_sub_noun","pepper","trái ớt","ugly","xấu","small","nhỏ","","","","","","","",""
"7850","","html-slider-response","3","75737","0.0-3.0","","4","<strong>Cách mô tả nào về  ""trái chuối"" nghe tự nhiên hơn?</strong>","int_int_noun","banana","trái chuối","","","","","yellow","màu vàng","dirty","dơ","","","",""
"10345","","html-slider-response","4","86085","0.0-4.0","","1","<strong>Cách mô tả nào về ""cái quạt"" nghe tự nhiên hơn?</strong>","sub_int_noun","fan","cái quạt","","","","","","","","","short","thấp","red","màu đỏ"
"6900","","html-slider-response","5","92987","0.0-5.0","","5","<strong>Cách mô tả nào về ""cái ly"" nghe tự nhiên hơn?</strong>","sub_sub_noun","cup","cái ly","small","nhỏ","tall","cao","","","","","","","",""
"12976","","html-slider-response","6","105965","0.0-6.0","","4","<strong>Cách mô tả nào về ""xôi"" nghe tự nhiên hơn?</strong>","sub_int_noun","sticky rice","xôi","","","","","","","","","beautiful","đẹp","square","hình vuông"
"7595","","html-slider-response","7","113562","0.0-7.0","","1","<strong>Cách mô tả nào về  ""cái ly"" nghe tự nhiên hơn?</strong>","int_int_noun","cup","cái ly","","","","","wooden","gỗ","round","hình tròn","","","",""
"6208.000000000015","","html-slider-response","8","119773","0.0-8.0","","5","<strong>Cách mô tả nào về ""trái chuối"" nghe tự nhiên hơn?</strong>","sub_sub_noun","banana","trái chuối","sweet","ngọt","big","lớn","","","","","","","",""
"8847.000000000015","","html-slider-response","9","128621","0.0-9.0","","1","<strong>Cách mô tả nào về  ""cái bàn"" nghe tự nhiên hơn?</strong>","int_int_noun","table","cái bàn","","","","","yellow","màu vàng","dirty","hình tròn","","","",""
"12701.00000000003","","html-slider-response","10","141324","0.0-10.0","","1","<strong>Cách mô tả nào về ""trái xoài"" nghe tự nhiên hơn?</strong>","sub_sub_noun","mango","trái xoài","big","lớn","bitter","đắng","","","","","","","",""
"12893","","html-slider-response","11","154220","0.0-11.0","","1","<strong>Cách mô tả nào về ""cục kẹo"" nghe tự nhiên hơn?</strong>","sub_int_noun","candy","cục kẹo","","","","","","","","","bitter","đắng","dirty","dơ"
"20523","","html-slider-response","12","174745","0.0-12.0","","1","<strong>Cách mô tả nào về  ""trái xoài"" nghe tự nhiên hơn?</strong>","int_int_noun","mango","trái xoài","","","","","yellow","màu vàng","dirty","dơ","","","",""
"5363.999999999971","","html-slider-response","13","180111","0.0-13.0","","5","<strong>Cách mô tả nào về  ""cái ghế"" nghe tự nhiên hơn?</strong>","int_int_noun","chair","cái ghế","","","","","yellow","màu vàng","plastic","nhựa","","","",""
"9796","","html-slider-response","14","189909","0.0-14.0","","5","<strong>Cách mô tả nào về ""cái bàn"" nghe tự nhiên hơn?</strong>","sub_sub_noun","table","cái bàn","big","lớn","tall","cao","","","","","","","",""
"6137","","html-slider-response","15","196049","0.0-15.0","","5","<strong>Cách mô tả nào về ""cái quạt"" nghe tự nhiên hơn?</strong>","sub_sub_noun","fan","cái quạt","tall","cao","ugly","xấu","","","","","","","",""
"5604","","html-slider-response","16","201655","0.0-16.0","","1","<strong>Cách mô tả nào về ""cái xe"" nghe tự nhiên hơn?</strong>","sub_int_noun","car","cái xe","","","","","","","","","beautiful","đẹp","square","hình vuông"
"12979","","html-slider-response","17","214637","0.0-17.0","","1","<strong>Cách mô tả nào về ""cục kẹo"" nghe tự nhiên hơn?</strong>","sub_sub_noun","candy","cục kẹo","sweet","ngọt","big","lớn","","","","","","","",""
"10167","","html-slider-response","18","224806","0.0-18.0","","5","<strong>Cách mô tả nào về  ""trái xoài"" nghe tự nhiên hơn?</strong>","int_int_noun","mango","trái xoài","","","","","round","hình tròn","dirty","dơ","","","",""
"9783","","html-slider-response","19","234591","0.0-19.0","","1","<strong>Cách mô tả nào về ""cái ghế"" nghe tự nhiên hơn?</strong>","sub_sub_noun","chair","cái ghế","ugly","xấu","tall","cao","","","","","","","",""
"8243","","html-slider-response","20","242837","0.0-20.0","","1","<strong>Cách mô tả nào về ""trái chuối"" nghe tự nhiên hơn?</strong>","sub_int_noun","banana","trái chuối","","","","","","","","","sweet","ngọt","clean","sạch"
"6263","","html-slider-response","21","249102","0.0-21.0","","1","<strong>Cách mô tả nào về ""cái bàn"" nghe tự nhiên hơn?</strong>","sub_int_noun","table","cái bàn","","","","","","","","","big","lớn","clean","hình vuông"
"5668.999999999971","","html-slider-response","22","254773","0.0-22.0","","1","<strong>Cách mô tả nào về ""cục kẹo"" nghe tự nhiên hơn?</strong>","sub_int_noun","candy","cục kẹo","","","","","","","","","big","lớn","clean","sạch"
"12936","","html-slider-response","23","267711","0.0-23.0","","5","<strong>Cách mô tả nào về  ""xôi"" nghe tự nhiên hơn?</strong>","int_int_noun","sticky rice","xôi","","","","","round","hình tròn","red","màu đỏ","","","",""
"13684","","html-slider-response","24","281397","0.0-24.0","","5","<strong>Cách mô tả nào về ""trái ớt"" nghe tự nhiên hơn?</strong>","sub_sub_noun","pepper","trái ớt","big","lớn","bitter","đắng","","","","","","","",""
"7472","","html-slider-response","25","288872","0.0-25.0","","1","<strong>Cách mô tả nào về  ""cái quạt"" nghe tự nhiên hơn?</strong>","int_int_noun","fan","cái quạt","","","","","wooden","gỗ","yellow","màu vàng","","","",""
"5994","","html-slider-response","26","294867","0.0-26.0","","5","<strong>Cách mô tả nào về ""cái xe"" nghe tự nhiên hơn?</strong>","sub_int_noun","car","cái xe","","","","","","","","","ugly","xấu","yellow","màu vàng"
"6144","","html-slider-response","27","301013","0.0-27.0","","5","<strong>Cách mô tả nào về ""xôi"" nghe tự nhiên hơn?</strong>","sub_int_noun","sticky rice","xôi","","","","","","","","","sweet","ngọt","round","hình tròn"
"6820","","html-slider-response","28","307835","0.0-28.0","","5","<strong>Cách mô tả nào về  ""cái ly"" nghe tự nhiên hơn?</strong>","int_int_noun","cup","cái ly","","","","","red","màu đỏ","clean","sạch","","","",""
"11569","","html-slider-response","29","319407","0.0-29.0","","1","<strong>Cách mô tả nào về ""cái ghế"" nghe tự nhiên hơn?</strong>","sub_sub_noun","chair","cái ghế","small","nhỏ","tall","cao","","","","","","","",""
"7845","","html-slider-response","30","327253","0.0-30.0","","5","<strong>Cách mô tả nào về ""cái xe"" nghe tự nhiên hơn?</strong>","sub_int_noun","car","cái xe","","","","","","","","","beautiful","đẹp","clean","sạch"
"7167.999999999942","","html-slider-response","31","334423","0.0-31.0","","1","<strong>Cách mô tả nào về  ""trái ớt"" nghe tự nhiên hơn?</strong>","int_int_noun","pepper","trái ớt","","","","","clean","sạch","round","hình tròn","","","",""
