"rt","url","trial_type","trial_index","time_elapsed","internal_node_id","view_history","response","stimulus","data_type","noun_type","viet_noun_type","sub_type","viet_sub_type","int_type","viet_int_type","int_type_1","viet_int_type_1","int_type_2","viet_int_type_2","sub_type_1","viet_sub_type_1","sub_type_2","viet_sub_type_2"
"29130","viet_consent_1.html","external-html","0","29205","0.0-0.0","","","","","","","","","","","","","","","","","",""
"47368","","instructions","1","76578","0.0-1.0","[{""page_index"":0,""viewing_time"":14328.000000000007},{""page_index"":1,""viewing_time"":25725.999999999993},{""page_index"":2,""viewing_time"":7311}]","","","","","","","","","","","","","","","","",""
"132027","","html-slider-response","2","208615","0.0-2.0","","6","<strong>Cách mô tả nào về ""cục kẹo"" nghe tự nhiên hơn?</strong>","sub_int_noun","candy","cục kẹo","bitter","đắng","red","màu đỏ","","","","","","","",""
"60229.00000000003","","html-slider-response","3","268850","0.0-3.0","","0","<strong>Cách mô tả nào về ""cái ghế"" nghe tự nhiên hơn?</strong>","sub_int_noun","chair","cái ghế","short","thấp","dirty","dơ","","","","","","","",""
"39412","","html-slider-response","4","308266","0.0-4.0","","6","<strong>Cách mô tả nào về  ""cái bàn"" nghe tự nhiên hơn?</strong>","int_int_noun","table","cái bàn","","","","","plastic","nhựa","clean","hình vuông","","","",""
"21717.00000000006","","html-slider-response","5","329987","0.0-5.0","","0","<strong>Cách mô tả nào về  ""cái xe"" nghe tự nhiên hơn?</strong>","int_int_noun","car","cái xe","","","","","plastic","nhựa","dirty","dơ","","","",""
"21222.00000000006","","html-slider-response","6","351212","0.0-6.0","","0","<strong>Cách mô tả nào về  ""cái ly"" nghe tự nhiên hơn?</strong>","int_int_noun","cup","cái ly","","","","","round","hình tròn","plastic","nhựa","","","",""
"16811","","html-slider-response","7","368028","0.0-7.0","","0","<strong>Cách mô tả nào về ""trái chuối"" nghe tự nhiên hơn?</strong>","sub_sub_noun","banana","trái chuối","","","","","","","","","small","nhỏ","ugly","xấu"
"47937.00000000006","","html-slider-response","8","415969","0.0-8.0","","0","<strong>Cách mô tả nào về  ""cục kẹo"" nghe tự nhiên hơn?</strong>","int_int_noun","candy","cục kẹo","","","","","square","hình vuông","yellow","màu vàng","","","",""
"14752","","html-slider-response","9","430725","0.0-9.0","","0","<strong>Cách mô tả nào về  ""trái xoài"" nghe tự nhiên hơn?</strong>","int_int_noun","mango","trái xoài","","","","","round","hình tròn","clean","sạch","","","",""
"18458","","html-slider-response","10","449187","0.0-10.0","","6","<strong>Cách mô tả nào về ""trái chuối"" nghe tự nhiên hơn?</strong>","sub_sub_noun","banana","trái chuối","","","","","","","","","sweet","ngọt","small","nhỏ"
"53941","","html-slider-response","11","503131","0.0-11.0","","6","<strong>Cách mô tả nào về ""xôi"" nghe tự nhiên hơn?</strong>","sub_int_noun","sticky rice","xôi","","lớn","round","hình tròn","","","","","","","",""
"28240.99999999994","","html-slider-response","12","531375","0.0-12.0","","0","<strong>Cách mô tả nào về  ""cái xe"" nghe tự nhiên hơn?</strong>","int_int_noun","car","cái xe","","","","","wooden","gỗ","red","màu đỏ","","","",""
"16448.999999999884","","html-slider-response","13","547827","0.0-13.0","","0","<strong>Cách mô tả nào về ""cái ly"" nghe tự nhiên hơn?</strong>","sub_int_noun","cup","cái ly","tall","cao","clean","sạch","","","","","","","",""
"42009","","html-slider-response","14","589841","0.0-14.0","","0","<strong>Cách mô tả nào về ""trái ớt"" nghe tự nhiên hơn?</strong>","sub_sub_noun","pepper","trái ớt","","","","","","","","","ugly","xấu","bitter","đắng"
"24837.999999999884","","html-slider-response","15","614682","0.0-15.0","","6","<strong>Cách mô tả nào về ""cái quạt"" nghe tự nhiên hơn?</strong>","sub_int_noun","fan","cái quạt","short","thấp","wooden","gỗ","","","","","","","",""
"19684","","html-slider-response","16","634370","0.0-16.0","","6","<strong>Cách mô tả nào về ""cái quạt"" nghe tự nhiên hơn?</strong>","sub_int_noun","fan","cái quạt","small","nhỏ","square","hình vuông","","","","","","","",""
"44528.00000000012","","html-slider-response","17","678900","0.0-17.0","","6","<strong>Cách mô tả nào về  ""cái ly"" nghe tự nhiên hơn?</strong>","int_int_noun","cup","cái ly","","","","","dirty","dơ","yellow","màu vàng","","","",""
"20613","","html-slider-response","18","699516","0.0-18.0","","0","<strong>Cách mô tả nào về  ""trái ớt"" nghe tự nhiên hơn?</strong>","int_int_noun","pepper","trái ớt","","","","","yellow","màu vàng","dirty","dơ","","","",""
"20834","","html-slider-response","19","720354","0.0-19.0","","0","<strong>Cách mô tả nào về ""trái xoài"" nghe tự nhiên hơn?</strong>","sub_int_noun","mango","trái xoài","small","nhỏ","yellow","màu vàng","","","","","","","",""
"16245","","html-slider-response","20","736604","0.0-20.0","","0","<strong>Cách mô tả nào về ""cái xe"" nghe tự nhiên hơn?</strong>","sub_sub_noun","car","cái xe","","","","","","","","","tall","cao","ugly","xấu"
"10162.000000000116","","html-slider-response","21","746769","0.0-21.0","","0","<strong>Cách mô tả nào về ""trái xoài"" nghe tự nhiên hơn?</strong>","sub_sub_noun","mango","trái xoài","","","","","","","","","big","lớn","sweet","ngọt"
"11442","","html-slider-response","22","758215","0.0-22.0","","0","<strong>Cách mô tả nào về ""cái bàn"" nghe tự nhiên hơn?</strong>","sub_sub_noun","table","cái bàn","","","","","","","","","big","lớn","beautiful","đẹp"
"11126","","html-slider-response","23","769347","0.0-23.0","","0","<strong>Cách mô tả nào về ""cái quạt"" nghe tự nhiên hơn?</strong>","sub_int_noun","fan","cái quạt","small","nhỏ","red","màu đỏ","","","","","","","",""
"21572.999999999884","","html-slider-response","24","790925","0.0-24.0","","0","<strong>Cách mô tả nào về ""trái chuối"" nghe tự nhiên hơn?</strong>","sub_sub_noun","banana","trái chuối","","","","","","","","","ugly","xấu","bitter","đắng"
"15562","","html-slider-response","25","806491","0.0-25.0","","6","<strong>Cách mô tả nào về ""cục kẹo"" nghe tự nhiên hơn?</strong>","sub_int_noun","candy","cục kẹo","beautiful","đẹp","square","hình vuông","","","","","","","",""
"10833.999999999884","","html-slider-response","26","817329","0.0-26.0","","6","<strong>Cách mô tả nào về ""cái ghế"" nghe tự nhiên hơn?</strong>","sub_int_noun","chair","cái ghế","short","thấp","round","hình tròn","","","","","","","",""
"21714.000000000116","","html-slider-response","27","839047","0.0-27.0","","0","<strong>Cách mô tả nào về ""cái bàn"" nghe tự nhiên hơn?</strong>","sub_sub_noun","table","cái bàn","","","","","","","","","big","lớn","beautiful","đẹp"
"28181","","html-slider-response","28","867232","0.0-28.0","","6","<strong>Cách mô tả nào về ""xôi"" nghe tự nhiên hơn?</strong>","sub_sub_noun","sticky rice","xôi","","","","","","","","","sweet","ngọt","ugly","xấu"
"17950","","html-slider-response","29","885186","0.0-29.0","","0","<strong>Cách mô tả nào về  ""cái ghế"" nghe tự nhiên hơn?</strong>","int_int_noun","chair","cái ghế","","","","","plastic","nhựa","yellow","màu vàng","","","",""
"20348","","html-slider-response","30","905537","0.0-30.0","","0","<strong>Cách mô tả nào về  ""xôi"" nghe tự nhiên hơn?</strong>","int_int_noun","sticky rice","xôi","","","","","round","hình tròn","yellow","màu vàng","","","",""
"20183","","html-slider-response","31","925725","0.0-31.0","","6","<strong>Cách mô tả nào về ""trái ớt"" nghe tự nhiên hơn?</strong>","sub_sub_noun","pepper","trái ớt","","","","","","","","","bitter","đắng","beautiful","đẹp"
