"rt","url","trial_type","trial_index","time_elapsed","internal_node_id","view_history","response","stimulus","data_type","noun_type","viet_noun_type","sub_type_1","viet_sub_type_1","sub_type_2","viet_sub_type_2","int_type_1","viet_int_type_1","int_type_2","viet_int_type_2","sub_type","viet_sub_type","int_type","viet_int_type"
"10847","viet_consent_1.html","external-html","0","10894","0.0-0.0","","","","","","","","","","","","","","","","","",""
"5137.999999999998","","instructions","1","16035","0.0-1.0","[{""page_index"":0,""viewing_time"":1878},{""page_index"":1,""viewing_time"":1966.9999999999982},{""page_index"":2,""viewing_time"":1291}]","","","","","","","","","","","","","","","","",""
"9032","","html-slider-response","2","25072","0.0-2.0","","6","<strong>Cách mô tả nào về ""trái ớt"" nghe tự nhiên hơn?</strong>","sub_sub_noun","pepper","trái ớt","bitter","đắng","small","nhỏ","","","","","","","",""
"7583","","html-slider-response","3","32659","0.0-3.0","","0","<strong>Cách mô tả nào về  ""cái xe"" nghe tự nhiên hơn?</strong>","int_int_noun","car","cái xe","","","","","wooden","gỗ","dirty","dơ","","","",""
"7812","","html-slider-response","4","40477","0.0-4.0","","6","<strong>Cách mô tả nào về ""cái ly"" nghe tự nhiên hơn?</strong>","sub_sub_noun","cup","cái ly","short","thấp","small","nhỏ","","","","","","","",""
"5241","","html-slider-response","5","45720","0.0-5.0","","6","<strong>Cách mô tả nào về  ""cái quạt"" nghe tự nhiên hơn?</strong>","int_int_noun","fan","cái quạt","","","","","clean","sạch","round","hình tròn","","","",""
"6675","","html-slider-response","6","52397","0.0-6.0","","6","<strong>Cách mô tả nào về  ""cái xe"" nghe tự nhiên hơn?</strong>","int_int_noun","car","cái xe","","","","","square","hình vuông","plastic","nhựa","","","",""
"5376","","html-slider-response","7","57775","0.0-7.0","","6","<strong>Cách mô tả nào về ""cái bàn"" nghe tự nhiên hơn?</strong>","sub_int_noun","table","cái bàn","","","","","","","","","ugly","xấu","plastic","nhựa"
"6983","","html-slider-response","8","64760","0.0-8.0","","0","<strong>Cách mô tả nào về  ""trái xoài"" nghe tự nhiên hơn?</strong>","int_int_noun","mango","trái xoài","","","","","round","hình tròn","clean","sạch","","","",""
"8296.999999999993","","html-slider-response","9","73060","0.0-9.0","","0","<strong>Cách mô tả nào về ""trái ớt"" nghe tự nhiên hơn?</strong>","sub_sub_noun","pepper","trái ớt","big","lớn","ugly","xấu","","","","","","","",""
"12816","","html-slider-response","10","85878","0.0-10.0","","0","<strong>Cách mô tả nào về ""cái bàn"" nghe tự nhiên hơn?</strong>","sub_sub_noun","table","cái bàn","small","nhỏ","tall","cao","","","","","","","",""
"4791","","html-slider-response","11","90672","0.0-11.0","","0","<strong>Cách mô tả nào về ""cái ghế"" nghe tự nhiên hơn?</strong>","sub_sub_noun","chair","cái ghế","big","lớn","beautiful","đẹp","","","","","","","",""
"6092","","html-slider-response","12","96766","0.0-12.0","","6","<strong>Cách mô tả nào về  ""cục kẹo"" nghe tự nhiên hơn?</strong>","int_int_noun","candy","cục kẹo","","","","","clean","sạch","yellow","màu vàng","","","",""
"4641","","html-slider-response","13","101409","0.0-13.0","","0","<strong>Cách mô tả nào về  ""cái xe"" nghe tự nhiên hơn?</strong>","int_int_noun","car","cái xe","","","","","plastic","nhựa","dirty","dơ","","","",""
"5199.000000000015","","html-slider-response","14","106610","0.0-14.0","","0","<strong>Cách mô tả nào về ""trái xoài"" nghe tự nhiên hơn?</strong>","sub_sub_noun","mango","trái xoài","big","lớn","sweet","ngọt","","","","","","","",""
"10650.999999999985","","html-slider-response","15","117263","0.0-15.0","","6","<strong>Cách mô tả nào về ""trái chuối"" nghe tự nhiên hơn?</strong>","sub_int_noun","banana","trái chuối","","","","","","","","","small","nhỏ","clean","sạch"
"9965.999999999985","","html-slider-response","16","127230","0.0-16.0","","0","<strong>Cách mô tả nào về ""cái bàn"" nghe tự nhiên hơn?</strong>","sub_int_noun","table","cái bàn","","","","","","","","","big","lớn","square","sạch"
"7068","","html-slider-response","17","134300","0.0-17.0","","0","<strong>Cách mô tả nào về ""trái chuối"" nghe tự nhiên hơn?</strong>","sub_int_noun","banana","trái chuối","","","","","","","","","big","lớn","yellow","màu vàng"
"5013","","html-slider-response","18","139315","0.0-18.0","","0","<strong>Cách mô tả nào về ""cái ly"" nghe tự nhiên hơn?</strong>","sub_int_noun","cup","cái ly","","","","","","","","","beautiful","đẹp","square","hình vuông"
"6329","","html-slider-response","19","145646","0.0-19.0","","0","<strong>Cách mô tả nào về ""cái ghế"" nghe tự nhiên hơn?</strong>","sub_int_noun","chair","cái ghế","","","","","","","","","big","lớn","dirty","dơ"
"5913","","html-slider-response","20","151561","0.0-20.0","","0","<strong>Cách mô tả nào về ""trái ớt"" nghe tự nhiên hơn?</strong>","sub_sub_noun","pepper","trái ớt","big","lớn","ugly","xấu","","","","","","","",""
"4458","","html-slider-response","21","156022","0.0-21.0","","0","<strong>Cách mô tả nào về  ""cái ghế"" nghe tự nhiên hơn?</strong>","int_int_noun","chair","cái ghế","","","","","plastic","nhựa","red","màu đỏ","","","",""
"4377","","html-slider-response","22","160402","0.0-22.0","","0","<strong>Cách mô tả nào về ""cục kẹo"" nghe tự nhiên hơn?</strong>","sub_sub_noun","candy","cục kẹo","big","lớn","bitter","đắng","","","","","","","",""
"5404","","html-slider-response","23","165807","0.0-23.0","","0","<strong>Cách mô tả nào về ""cục kẹo"" nghe tự nhiên hơn?</strong>","sub_int_noun","candy","cục kẹo","","","","","","","","","sweet","ngọt","dirty","dơ"
"7285","","html-slider-response","24","173095","0.0-24.0","","6","<strong>Cách mô tả nào về ""xôi"" nghe tự nhiên hơn?</strong>","sub_int_noun","sticky rice","xôi","","","","","","","","","beautiful","đẹp","red","màu đỏ"
"7907","","html-slider-response","25","181005","0.0-25.0","","0","<strong>Cách mô tả nào về ""trái xoài"" nghe tự nhiên hơn?</strong>","sub_sub_noun","mango","trái xoài","beautiful","đẹp","sweet","ngọt","","","","","","","",""
"6058","","html-slider-response","26","187066","0.0-26.0","","0","<strong>Cách mô tả nào về  ""trái chuối"" nghe tự nhiên hơn?</strong>","int_int_noun","banana","trái chuối","","","","","yellow","màu vàng","clean","sạch","","","",""
"10757.00000000003","","html-slider-response","27","197824","0.0-27.0","","0","<strong>Cách mô tả nào về ""xôi"" nghe tự nhiên hơn?</strong>","sub_sub_noun","sticky rice","xôi","","lớn","sweet","ngọt","","","","","","","",""
"11401","","html-slider-response","28","209226","0.0-28.0","","0","<strong>Cách mô tả nào về ""cái ly"" nghe tự nhiên hơn?</strong>","sub_int_noun","cup","cái ly","","","","","","","","","tall","cao","yellow","màu vàng"
"8762.99999999997","","html-slider-response","29","217991","0.0-29.0","","6","<strong>Cách mô tả nào về  ""cái quạt"" nghe tự nhiên hơn?</strong>","int_int_noun","fan","cái quạt","","","","","red","màu đỏ","wooden","gỗ","","","",""
"27339","","html-slider-response","30","245331","0.0-30.0","","0","<strong>Cách mô tả nào về ""xôi"" nghe tự nhiên hơn?</strong>","sub_int_noun","sticky rice","xôi","","","","","","","","","","nhỏ","clean","sạch"
"12389.99999999997","","html-slider-response","31","257723","0.0-31.0","","6","<strong>Cách mô tả nào về  ""cái quạt"" nghe tự nhiên hơn?</strong>","int_int_noun","fan","cái quạt","","","","","clean","sạch","red","màu đỏ","","","",""
