"rt","url","trial_type","trial_index","time_elapsed","internal_node_id","view_history","response","stimulus","data_type","noun_type","viet_noun_type","sub_type_1","viet_sub_type_1","sub_type_2","viet_sub_type_2","sub_type","viet_sub_type","int_type","viet_int_type","int_type_1","viet_int_type_1","int_type_2","viet_int_type_2"
"7988","viet_consent_1.html","external-html","0","8257","0.0-0.0","","","","","","","","","","","","","","","","","",""
"23170","","instructions","1","31434","0.0-1.0","[{""page_index"":0,""viewing_time"":2362},{""page_index"":1,""viewing_time"":19320},{""page_index"":2,""viewing_time"":1482}]","","","","","","","","","","","","","","","","",""
"23798.000000000007","","html-slider-response","2","55248","0.0-2.0","","5","<strong>Cách mô tả nào về ""cái ly"" nghe tự nhiên hơn?</strong>","sub_sub_noun","cup","cái ly","tall","cao","big","lớn","","","","","","","",""
"17659","","html-slider-response","3","72916","0.0-3.0","","1","<strong>Cách mô tả nào về ""trái ớt"" nghe tự nhiên hơn?</strong>","sub_int_noun","pepper","trái ớt","","","","","ugly","xấu","round","hình tròn","","","",""
"24463","","html-slider-response","4","97382","0.0-4.0","","6","<strong>Cách mô tả nào về  ""trái xoài"" nghe tự nhiên hơn?</strong>","int_int_noun","mango","trái xoài","","","","","","","","","round","hình tròn","yellow","màu vàng"
"15779","","html-slider-response","5","113166","0.0-5.0","","0","<strong>Cách mô tả nào về ""trái ớt"" nghe tự nhiên hơn?</strong>","sub_int_noun","pepper","trái ớt","","","","","ugly","xấu","round","hình tròn","","","",""
"8715","","html-slider-response","6","121884","0.0-6.0","","0","<strong>Cách mô tả nào về  ""cái ly"" nghe tự nhiên hơn?</strong>","int_int_noun","cup","cái ly","","","","","","","","","wooden","gỗ","dirty","dơ"
"7677","","html-slider-response","7","129566","0.0-7.0","","6","<strong>Cách mô tả nào về ""cục kẹo"" nghe tự nhiên hơn?</strong>","sub_sub_noun","candy","cục kẹo","bitter","đắng","small","nhỏ","","","","","","","",""
"12128","","html-slider-response","8","141700","0.0-8.0","","5","<strong>Cách mô tả nào về ""cái xe"" nghe tự nhiên hơn?</strong>","sub_sub_noun","car","cái xe","beautiful","đẹp","tall","cao","","","","","","","",""
"18646","","html-slider-response","9","160350","0.0-9.0","","6","<strong>Cách mô tả nào về ""cái ghế"" nghe tự nhiên hơn?</strong>","sub_sub_noun","chair","cái ghế","small","nhỏ","tall","cao","","","","","","","",""
"9431","","html-slider-response","10","169785","0.0-10.0","","0","<strong>Cách mô tả nào về ""cái ghế"" nghe tự nhiên hơn?</strong>","sub_sub_noun","chair","cái ghế","short","thấp","beautiful","đẹp","","","","","","","",""
"10628.99999999997","","html-slider-response","11","180418","0.0-11.0","","6","<strong>Cách mô tả nào về  ""trái chuối"" nghe tự nhiên hơn?</strong>","int_int_noun","banana","trái chuối","","","","","","","","","dirty","dơ","yellow","màu vàng"
"19681","","html-slider-response","12","200103","0.0-12.0","","0","<strong>Cách mô tả nào về  ""trái xoài"" nghe tự nhiên hơn?</strong>","int_int_noun","mango","trái xoài","","","","","","","","","red","màu đỏ","square","hình vuông"
"9646","","html-slider-response","13","209752","0.0-13.0","","6","<strong>Cách mô tả nào về ""cái xe"" nghe tự nhiên hơn?</strong>","sub_int_noun","car","cái xe","","","","","beautiful","đẹp","wooden","gỗ","","","",""
"12614","","html-slider-response","14","222370","0.0-14.0","","6","<strong>Cách mô tả nào về ""cái bàn"" nghe tự nhiên hơn?</strong>","sub_sub_noun","table","cái bàn","beautiful","đẹp","small","nhỏ","","","","","","","",""
"25880","","html-slider-response","15","248255","0.0-15.0","","1","<strong>Cách mô tả nào về ""xôi"" nghe tự nhiên hơn?</strong>","sub_sub_noun","sticky rice","xôi","sweet","ngọt","","lớn","","","","","","","",""
"8762","","html-slider-response","16","257021","0.0-16.0","","6","<strong>Cách mô tả nào về ""trái chuối"" nghe tự nhiên hơn?</strong>","sub_sub_noun","banana","trái chuối","ugly","xấu","big","lớn","","","","","","","",""
"13779.99999999997","","html-slider-response","17","270806","0.0-17.0","","6","<strong>Cách mô tả nào về  ""cái quạt"" nghe tự nhiên hơn?</strong>","int_int_noun","fan","cái quạt","","","","","","","","","dirty","dơ","red","màu đỏ"
"7894","","html-slider-response","18","278705","0.0-18.0","","6","<strong>Cách mô tả nào về ""cục kẹo"" nghe tự nhiên hơn?</strong>","sub_int_noun","candy","cục kẹo","","","","","bitter","đắng","red","màu đỏ","","","",""
"10310","","html-slider-response","19","289023","0.0-19.0","","5","<strong>Cách mô tả nào về ""trái ớt"" nghe tự nhiên hơn?</strong>","sub_int_noun","pepper","trái ớt","","","","","sweet","ngọt","yellow","màu vàng","","","",""
"8944","","html-slider-response","20","297973","0.0-20.0","","0","<strong>Cách mô tả nào về ""cục kẹo"" nghe tự nhiên hơn?</strong>","sub_int_noun","candy","cục kẹo","","","","","big","lớn","yellow","màu vàng","","","",""
"9913","","html-slider-response","21","307890","0.0-21.0","","6","<strong>Cách mô tả nào về ""cái bàn"" nghe tự nhiên hơn?</strong>","sub_int_noun","table","cái bàn","","","","","short","thấp","plastic","nhựa","","","",""
"13663","","html-slider-response","22","321557","0.0-22.0","","1","<strong>Cách mô tả nào về ""xôi"" nghe tự nhiên hơn?</strong>","sub_sub_noun","sticky rice","xôi","bitter","đắng","","lớn","","","","","","","",""
"15465","","html-slider-response","23","337028","0.0-23.0","","6","<strong>Cách mô tả nào về  ""trái xoài"" nghe tự nhiên hơn?</strong>","int_int_noun","mango","trái xoài","","","","","","","","","square","hình vuông","red","màu đỏ"
"8409","","html-slider-response","24","345441","0.0-24.0","","0","<strong>Cách mô tả nào về ""trái chuối"" nghe tự nhiên hơn?</strong>","sub_sub_noun","banana","trái chuối","big","lớn","beautiful","đẹp","","","","","","","",""
"6796.999999999942","","html-slider-response","25","352242","0.0-25.0","","6","<strong>Cách mô tả nào về ""cái xe"" nghe tự nhiên hơn?</strong>","sub_int_noun","car","cái xe","","","","","tall","cao","yellow","màu vàng","","","",""
"10795","","html-slider-response","26","363042","0.0-26.0","","0","<strong>Cách mô tả nào về  ""xôi"" nghe tự nhiên hơn?</strong>","int_int_noun","sticky rice","xôi","","","","","","","","","red","màu đỏ","dirty","dơ"
"17361","","html-slider-response","27","380410","0.0-27.0","","0","<strong>Cách mô tả nào về  ""cái quạt"" nghe tự nhiên hơn?</strong>","int_int_noun","fan","cái quạt","","","","","","","","","plastic","nhựa","dirty","dơ"
"7261.000000000058","","html-slider-response","28","387677","0.0-28.0","","0","<strong>Cách mô tả nào về ""cái bàn"" nghe tự nhiên hơn?</strong>","sub_int_noun","table","cái bàn","","","","","beautiful","đẹp","red","màu đỏ","","","",""
"6797","","html-slider-response","29","394476","0.0-29.0","","6","<strong>Cách mô tả nào về ""cái ly"" nghe tự nhiên hơn?</strong>","sub_int_noun","cup","cái ly","","","","","small","nhỏ","clean","sạch","","","",""
"8648","","html-slider-response","30","403128","0.0-30.0","","0","<strong>Cách mô tả nào về  ""cái ghế"" nghe tự nhiên hơn?</strong>","int_int_noun","chair","cái ghế","","","","","","","","","round","hình tròn","clean","sạch"
"9078","","html-slider-response","31","412211","0.0-31.0","","6","<strong>Cách mô tả nào về  ""cái quạt"" nghe tự nhiên hơn?</strong>","int_int_noun","fan","cái quạt","","","","","","","","","yellow","màu vàng","round","hình tròn"
