"rt","url","trial_type","trial_index","time_elapsed","internal_node_id","view_history","response","stimulus","data_type","noun_type","viet_noun_type","int_type_1","viet_int_type_1","int_type_2","viet_int_type_2","sub_type_1","viet_sub_type_1","sub_type_2","viet_sub_type_2","sub_type","viet_sub_type","int_type","viet_int_type"
"31840.355000000003","viet_consent_1.html","external-html","0","31909","0.0-0.0","","","","","","","","","","","","","","","","","",""
"31845.840000000007","","instructions","1","63756","0.0-1.0","[{""page_index"":0,""viewing_time"":9910.895000000008},{""page_index"":1,""viewing_time"":18217.059999999976},{""page_index"":2,""viewing_time"":3717.470000000023}]","","","","","","","","","","","","","","","","",""
"262290.60500000004","","html-slider-response","2","326050","0.0-2.0","","0","<strong>Cách mô tả nào về  ""cái quạt"" nghe tự nhiên hơn?</strong>","int_int_noun","fan","cái quạt","square","hình vuông","red","màu đỏ","","","","","","","",""
"17721.37499999994","","html-slider-response","3","343772","0.0-3.0","","3","<strong>Cách mô tả nào về ""cái ly"" nghe tự nhiên hơn?</strong>","sub_sub_noun","cup","cái ly","","","","","ugly","xấu","short","thấp","","","",""
"27844.579999999958","","html-slider-response","4","371618","0.0-4.0","","4","<strong>Cách mô tả nào về  ""cục kẹo"" nghe tự nhiên hơn?</strong>","int_int_noun","candy","cục kẹo","dirty","dơ","red","màu đỏ","","","","","","","",""
"10113.070000000007","","html-slider-response","5","381732","0.0-5.0","","0","<strong>Cách mô tả nào về ""cái ghế"" nghe tự nhiên hơn?</strong>","sub_sub_noun","chair","cái ghế","","","","","short","thấp","beautiful","đẹp","","","",""
"14962.679999999993","","html-slider-response","6","396696","0.0-6.0","","0","<strong>Cách mô tả nào về  ""cục kẹo"" nghe tự nhiên hơn?</strong>","int_int_noun","candy","cục kẹo","round","hình tròn","red","màu đỏ","","","","","","","",""
"7801.594999999972","","html-slider-response","7","404499","0.0-7.0","","0","<strong>Cách mô tả nào về  ""cái ly"" nghe tự nhiên hơn?</strong>","int_int_noun","cup","cái ly","plastic","nhựa","red","màu đỏ","","","","","","","",""
"6859.755000000063","","html-slider-response","8","411360","0.0-8.0","","6","<strong>Cách mô tả nào về ""cục kẹo"" nghe tự nhiên hơn?</strong>","sub_sub_noun","candy","cục kẹo","","","","","bitter","đắng","big","lớn","","","",""
"9741.560000000056","","html-slider-response","9","421102","0.0-9.0","","6","<strong>Cách mô tả nào về ""cục kẹo"" nghe tự nhiên hơn?</strong>","sub_int_noun","candy","cục kẹo","","","","","","","","","beautiful","đẹp","clean","sạch"
"7083.655000000028","","html-slider-response","10","428187","0.0-10.0","","0","<strong>Cách mô tả nào về ""trái xoài"" nghe tự nhiên hơn?</strong>","sub_sub_noun","mango","trái xoài","","","","","big","lớn","ugly","xấu","","","",""
"5845.9749999999185","","html-slider-response","11","434034","0.0-11.0","","6","<strong>Cách mô tả nào về ""cái ghế"" nghe tự nhiên hơn?</strong>","sub_int_noun","chair","cái ghế","","","","","","","","","big","lớn","round","hình tròn"
"6905.804999999993","","html-slider-response","12","440941","0.0-12.0","","6","<strong>Cách mô tả nào về ""cái ly"" nghe tự nhiên hơn?</strong>","sub_sub_noun","cup","cái ly","","","","","ugly","xấu","big","lớn","","","",""
"7097.75","","html-slider-response","13","448040","0.0-13.0","","6","<strong>Cách mô tả nào về  ""trái xoài"" nghe tự nhiên hơn?</strong>","int_int_noun","mango","trái xoài","yellow","màu vàng","round","hình tròn","","","","","","","",""
"7355.804999999993","","html-slider-response","14","455397","0.0-14.0","","0","<strong>Cách mô tả nào về ""cái quạt"" nghe tự nhiên hơn?</strong>","sub_sub_noun","fan","cái quạt","","","","","short","thấp","beautiful","đẹp","","","",""
"6271.884999999951","","html-slider-response","15","461670","0.0-15.0","","0","<strong>Cách mô tả nào về ""trái ớt"" nghe tự nhiên hơn?</strong>","sub_int_noun","pepper","trái ớt","","","","","","","","","small","nhỏ","red","màu đỏ"
"88875.30000000005","","html-slider-response","16","550546","0.0-16.0","","6","<strong>Cách mô tả nào về ""trái ớt"" nghe tự nhiên hơn?</strong>","sub_int_noun","pepper","trái ớt","","","","","","","","","sweet","ngọt","clean","sạch"
"9159.469999999972","","html-slider-response","17","559707","0.0-17.0","","0","<strong>Cách mô tả nào về ""cái quạt"" nghe tự nhiên hơn?</strong>","sub_int_noun","fan","cái quạt","","","","","","","","","beautiful","đẹp","plastic","nhựa"
"9345.375","","html-slider-response","18","569054","0.0-18.0","","0","<strong>Cách mô tả nào về ""trái xoài"" nghe tự nhiên hơn?</strong>","sub_int_noun","mango","trái xoài","","","","","","","","","small","nhỏ","round","hình tròn"
"146006.625","","html-slider-response","19","715062","0.0-19.0","","3","<strong>Cách mô tả nào về  ""xôi"" nghe tự nhiên hơn?</strong>","int_int_noun","sticky rice","xôi","square","hình vuông","yellow","màu vàng","","","","","","","",""
"60065.619999999995","","html-slider-response","20","775128","0.0-20.0","","3","<strong>Cách mô tả nào về ""trái chuối"" nghe tự nhiên hơn?</strong>","sub_sub_noun","banana","trái chuối","","","","","ugly","xấu","small","nhỏ","","","",""
"6215.889999999898","","html-slider-response","21","781345","0.0-21.0","","0","<strong>Cách mô tả nào về ""xôi"" nghe tự nhiên hơn?</strong>","sub_int_noun","sticky rice","xôi","","","","","","","","","","nhỏ","dirty","dơ"
"6839.900000000023","","html-slider-response","22","788186","0.0-22.0","","0","<strong>Cách mô tả nào về ""cái quạt"" nghe tự nhiên hơn?</strong>","sub_sub_noun","fan","cái quạt","","","","","small","nhỏ","beautiful","đẹp","","","",""
"17182.22999999998","","html-slider-response","23","805369","0.0-23.0","","3","<strong>Cách mô tả nào về ""cục kẹo"" nghe tự nhiên hơn?</strong>","sub_int_noun","candy","cục kẹo","","","","","","","","","bitter","đắng","square","hình vuông"
"21679.579999999958","","html-slider-response","24","827051","0.0-24.0","","3","<strong>Cách mô tả nào về  ""cái ghế"" nghe tự nhiên hơn?</strong>","int_int_noun","chair","cái ghế","clean","sạch","square","hình vuông","","","","","","","",""
"14350.660000000033","","html-slider-response","25","841402","0.0-25.0","","3","<strong>Cách mô tả nào về  ""cái xe"" nghe tự nhiên hơn?</strong>","int_int_noun","car","cái xe","yellow","màu vàng","dirty","dơ","","","","","","","",""
"5280.0650000000605","","html-slider-response","26","846684","0.0-26.0","","3","<strong>Cách mô tả nào về ""cái ghế"" nghe tự nhiên hơn?</strong>","sub_int_noun","chair","cái ghế","","","","","","","","","big","lớn","yellow","màu vàng"
"8765.530000000028","","html-slider-response","27","855450","0.0-27.0","","3","<strong>Cách mô tả nào về ""cái quạt"" nghe tự nhiên hơn?</strong>","sub_int_noun","fan","cái quạt","","","","","","","","","small","nhỏ","red","màu đỏ"
"5204.0449999999255","","html-slider-response","28","860655","0.0-28.0","","3","<strong>Cách mô tả nào về  ""cục kẹo"" nghe tự nhiên hơn?</strong>","int_int_noun","candy","cục kẹo","dirty","dơ","square","hình vuông","","","","","","","",""
"6585.854999999981","","html-slider-response","29","867242","0.0-29.0","","3","<strong>Cách mô tả nào về ""cục kẹo"" nghe tự nhiên hơn?</strong>","sub_sub_noun","candy","cục kẹo","","","","","bitter","đắng","beautiful","đẹp","","","",""
"7311.819999999949","","html-slider-response","30","874555","0.0-30.0","","3","<strong>Cách mô tả nào về ""xôi"" nghe tự nhiên hơn?</strong>","sub_sub_noun","sticky rice","xôi","","","","","bitter","đắng","","nhỏ","","","",""
"6539.265000000014","","html-slider-response","31","881096","0.0-31.0","","6","<strong>Cách mô tả nào về  ""cái xe"" nghe tự nhiên hơn?</strong>","int_int_noun","car","cái xe","dirty","dơ","wooden","gỗ","","","","","","","",""
