"rt","url","trial_type","trial_index","time_elapsed","internal_node_id","view_history","response","stimulus","data_type","noun_type","viet_noun_type","int_type_1","viet_int_type_1","int_type_2","viet_int_type_2","sub_type","viet_sub_type","int_type","viet_int_type","sub_type_1","viet_sub_type_1","sub_type_2","viet_sub_type_2"
"375373.7699999474","viet_consent_1.html","external-html","0","375449","0.0-0.0","","","","","","","","","","","","","","","","","",""
"53037.675000028685","","instructions","1","428488","0.0-1.0","[{""page_index"":0,""viewing_time"":6613.050000043586},{""page_index"":1,""viewing_time"":40397.80499995686},{""page_index"":2,""viewing_time"":6025.9150001220405}]","","","","","","","","","","","","","","","","",""
"41393.95499997772","","html-slider-response","2","469893","0.0-2.0","","0","<strong>Cách mô tả nào về  ""cái ly"" nghe tự nhiên hơn?</strong>","int_int_noun","cup","cái ly","plastic","nhựa","square","hình vuông","","","","","","","",""
"23887.97500007786","","html-slider-response","3","493783","0.0-3.0","","6","<strong>Cách mô tả nào về  ""trái xoài"" nghe tự nhiên hơn?</strong>","int_int_noun","mango","trái xoài","dirty","dơ","yellow","màu vàng","","","","","","","",""
"35190.72499987669","","html-slider-response","4","528963","0.0-4.0","","0","<strong>Cách mô tả nào về ""trái ớt"" nghe tự nhiên hơn?</strong>","sub_int_noun","pepper","trái ớt","","","","","beautiful","đẹp","round","hình tròn","","","",""
"67746.560000116","","html-slider-response","5","596723","0.0-5.0","","0","<strong>Cách mô tả nào về ""cục kẹo"" nghe tự nhiên hơn?</strong>","sub_int_noun","candy","cục kẹo","","","","","bitter","đắng","yellow","màu vàng","","","",""
"52216.55000001192","","html-slider-response","6","648941","0.0-6.0","","6","<strong>Cách mô tả nào về ""xôi"" nghe tự nhiên hơn?</strong>","sub_int_noun","sticky rice","xôi","","","","","","lớn","clean","sạch","","","",""
"50230.25000002235","","html-slider-response","7","699173","0.0-7.0","","0","<strong>Cách mô tả nào về  ""trái xoài"" nghe tự nhiên hơn?</strong>","int_int_noun","mango","trái xoài","red","màu đỏ","dirty","dơ","","","","","","","",""
"30450.635000132024","","html-slider-response","8","729626","0.0-8.0","","6","<strong>Cách mô tả nào về  ""trái xoài"" nghe tự nhiên hơn?</strong>","int_int_noun","mango","trái xoài","clean","sạch","yellow","màu vàng","","","","","","","",""
"18140.549999894574","","html-slider-response","9","747768","0.0-9.0","","0","<strong>Cách mô tả nào về ""cái xe"" nghe tự nhiên hơn?</strong>","sub_sub_noun","car","cái xe","","","","","","","","","small","nhỏ","beautiful","đẹp"
"27856.66500008665","","html-slider-response","10","775626","0.0-10.0","","0","<strong>Cách mô tả nào về  ""cái ly"" nghe tự nhiên hơn?</strong>","int_int_noun","cup","cái ly","wooden","gỗ","yellow","màu vàng","","","","","","","",""
"12114.620000123978","","html-slider-response","11","787742","0.0-11.0","","6","<strong>Cách mô tả nào về ""xôi"" nghe tự nhiên hơn?</strong>","sub_sub_noun","sticky rice","xôi","","","","","","","","","bitter","đắng","","lớn"
"16662.680000066757","","html-slider-response","12","804406","0.0-12.0","","0","<strong>Cách mô tả nào về ""xôi"" nghe tự nhiên hơn?</strong>","sub_int_noun","sticky rice","xôi","","","","","","lớn","clean","sạch","","","",""
"10746.565000154078","","html-slider-response","13","815154","0.0-13.0","","0","<strong>Cách mô tả nào về ""cái xe"" nghe tự nhiên hơn?</strong>","sub_int_noun","car","cái xe","","","","","beautiful","đẹp","plastic","nhựa","","","",""
"21758.780000032857","","html-slider-response","14","836914","0.0-14.0","","6","<strong>Cách mô tả nào về  ""cái bàn"" nghe tự nhiên hơn?</strong>","int_int_noun","table","cái bàn","yellow","màu vàng","dirty","hình tròn","","","","","","","",""
"25040.729999775067","","html-slider-response","15","861946","0.0-15.0","","6","<strong>Cách mô tả nào về ""cái quạt"" nghe tự nhiên hơn?</strong>","sub_sub_noun","fan","cái quạt","","","","","","","","","ugly","xấu","small","nhỏ"
"15402.389999944717","","html-slider-response","16","877350","0.0-16.0","","0","<strong>Cách mô tả nào về ""cái bàn"" nghe tự nhiên hơn?</strong>","sub_sub_noun","table","cái bàn","","","","","","","","","short","thấp","beautiful","đẹp"
"15960.509999888018","","html-slider-response","17","893312","0.0-17.0","","0","<strong>Cách mô tả nào về ""trái chuối"" nghe tự nhiên hơn?</strong>","sub_sub_noun","banana","trái chuối","","","","","","","","","beautiful","đẹp","bitter","đắng"
"25714.72999989055","","html-slider-response","18","919032","0.0-18.0","","0","<strong>Cách mô tả nào về ""trái ớt"" nghe tự nhiên hơn?</strong>","sub_int_noun","pepper","trái ớt","","","","","sweet","ngọt","clean","sạch","","","",""
"11302.575000096112","","html-slider-response","19","930336","0.0-19.0","","6","<strong>Cách mô tả nào về ""trái chuối"" nghe tự nhiên hơn?</strong>","sub_int_noun","banana","trái chuối","","","","","small","nhỏ","dirty","dơ","","","",""
"13798.775000032037","","html-slider-response","20","944136","0.0-20.0","","6","<strong>Cách mô tả nào về ""cục kẹo"" nghe tự nhiên hơn?</strong>","sub_sub_noun","candy","cục kẹo","","","","","","","","","bitter","đắng","beautiful","đẹp"
"36718.71499996632","","html-slider-response","21","980852","0.0-21.0","","0","<strong>Cách mô tả nào về ""cái ly"" nghe tự nhiên hơn?</strong>","sub_int_noun","cup","cái ly","","","","","ugly","xấu","clean","sạch","","","",""
"17902.615000028163","","html-slider-response","22","998756","0.0-22.0","","6","<strong>Cách mô tả nào về ""trái chuối"" nghe tự nhiên hơn?</strong>","sub_int_noun","banana","trái chuối","","","","","big","lớn","dirty","dơ","","","",""
"55394.71499994397","","html-slider-response","23","1054151","0.0-23.0","","6","<strong>Cách mô tả nào về ""cái ghế"" nghe tự nhiên hơn?</strong>","sub_sub_noun","chair","cái ghế","","","","","","","","","short","thấp","small","nhỏ"
"24462.724999990314","","html-slider-response","24","1078615","0.0-24.0","","6","<strong>Cách mô tả nào về  ""cái ghế"" nghe tự nhiên hơn?</strong>","int_int_noun","chair","cái ghế","dirty","dơ","red","màu đỏ","","","","","","","",""
"44448.62000015564","","html-slider-response","25","1123074","0.0-25.0","","0","<strong>Cách mô tả nào về ""cái xe"" nghe tự nhiên hơn?</strong>","sub_int_noun","car","cái xe","","","","","small","nhỏ","square","hình vuông","","","",""
"10046.499999938533","","html-slider-response","26","1133122","0.0-26.0","","6","<strong>Cách mô tả nào về  ""cái bàn"" nghe tự nhiên hơn?</strong>","int_int_noun","table","cái bàn","square","sạch","plastic","nhựa","","","","","","","",""
"12744.655000045896","","html-slider-response","27","1145868","0.0-27.0","","0","<strong>Cách mô tả nào về  ""cái quạt"" nghe tự nhiên hơn?</strong>","int_int_noun","fan","cái quạt","wooden","gỗ","red","màu đỏ","","","","","","","",""
"14748.829999938607","","html-slider-response","28","1160618","0.0-28.0","","6","<strong>Cách mô tả nào về ""cái ghế"" nghe tự nhiên hơn?</strong>","sub_sub_noun","chair","cái ghế","","","","","","","","","tall","cao","small","nhỏ"
"23806.61499989219","","html-slider-response","29","1184417","0.0-29.0","","6","<strong>Cách mô tả nào về ""cái quạt"" nghe tự nhiên hơn?</strong>","sub_sub_noun","fan","cái quạt","","","","","","","","","ugly","xấu","tall","cao"
"15714.644999941811","","html-slider-response","30","1200133","0.0-30.0","","6","<strong>Cách mô tả nào về  ""cục kẹo"" nghe tự nhiên hơn?</strong>","int_int_noun","candy","cục kẹo","dirty","dơ","square","hình vuông","","","","","","","",""
"104256.63499999791","","html-slider-response","31","1304400","0.0-31.0","","0","<strong>Cách mô tả nào về ""trái ớt"" nghe tự nhiên hơn?</strong>","sub_sub_noun","pepper","trái ớt","","","","","","","","","sweet","ngọt","ugly","xấu"
