"rt","url","trial_type","trial_index","time_elapsed","internal_node_id","view_history","response","stimulus","data_type","noun_type","viet_noun_type","int_type_1","viet_int_type_1","int_type_2","viet_int_type_2","sub_type_1","viet_sub_type_1","sub_type_2","viet_sub_type_2","sub_type","viet_sub_type","int_type","viet_int_type"
"15695.000000000004","viet_consent_1.html","external-html","0","15848","0.0-0.0","","","","","","","","","","","","","","","","","",""
"7229","","instructions","1","23083","0.0-1.0","[{""page_index"":0,""viewing_time"":3273},{""page_index"":1,""viewing_time"":2034},{""page_index"":2,""viewing_time"":1899.0000000000036}]","","","","","","","","","","","","","","","","",""
"7886.000000000004","","html-slider-response","2","30994","0.0-2.0","","0","<strong>Cách mô tả nào về  ""cái xe"" nghe tự nhiên hơn?</strong>","int_int_noun","car","cái xe","wooden","gỗ","dirty","dơ","","","","","","","",""
"16647","","html-slider-response","3","47646","0.0-3.0","","6","<strong>Cách mô tả nào về  ""xôi"" nghe tự nhiên hơn?</strong>","int_int_noun","sticky rice","xôi","yellow","màu vàng","round","hình tròn","","","","","","","",""
"13767","","html-slider-response","4","61414","0.0-4.0","","6","<strong>Cách mô tả nào về ""trái chuối"" nghe tự nhiên hơn?</strong>","sub_sub_noun","banana","trái chuối","","","","","sweet","ngọt","big","lớn","","","",""
"18839.000000000015","","html-slider-response","5","80271","0.0-5.0","","6","<strong>Cách mô tả nào về ""trái ớt"" nghe tự nhiên hơn?</strong>","sub_sub_noun","pepper","trái ớt","","","","","ugly","xấu","big","lớn","","","",""
"19891","","html-slider-response","6","100178","0.0-6.0","","0","<strong>Cách mô tả nào về ""trái xoài"" nghe tự nhiên hơn?</strong>","sub_int_noun","mango","trái xoài","","","","","","","","","big","lớn","clean","sạch"
"19286","","html-slider-response","7","119473","0.0-7.0","","6","<strong>Cách mô tả nào về  ""trái chuối"" nghe tự nhiên hơn?</strong>","int_int_noun","banana","trái chuối","clean","sạch","yellow","màu vàng","","","","","","","",""
"7300.000000000015","","html-slider-response","8","126791","0.0-8.0","","6","<strong>Cách mô tả nào về ""cái quạt"" nghe tự nhiên hơn?</strong>","sub_sub_noun","fan","cái quạt","","","","","beautiful","đẹp","big","lớn","","","",""
"10526.999999999985","","html-slider-response","9","137343","0.0-9.0","","6","<strong>Cách mô tả nào về ""cái xe"" nghe tự nhiên hơn?</strong>","sub_int_noun","car","cái xe","","","","","","","","","ugly","xấu","red","màu đỏ"
"5985","","html-slider-response","10","143342","0.0-10.0","","6","<strong>Cách mô tả nào về ""cái quạt"" nghe tự nhiên hơn?</strong>","sub_sub_noun","fan","cái quạt","","","","","beautiful","đẹp","tall","cao","","","",""
"14930","","html-slider-response","11","158282","0.0-11.0","","6","<strong>Cách mô tả nào về  ""cái bàn"" nghe tự nhiên hơn?</strong>","int_int_noun","table","cái bàn","dirty","hình tròn","wooden","gỗ","","","","","","","",""
"21328","","html-slider-response","12","179615","0.0-12.0","","6","<strong>Cách mô tả nào về  ""cái quạt"" nghe tự nhiên hơn?</strong>","int_int_noun","fan","cái quạt","dirty","dơ","yellow","màu vàng","","","","","","","",""
"18430.00000000003","","html-slider-response","13","198052","0.0-13.0","","0","<strong>Cách mô tả nào về  ""cái ly"" nghe tự nhiên hơn?</strong>","int_int_noun","cup","cái ly","wooden","gỗ","yellow","màu vàng","","","","","","","",""
"26696","","html-slider-response","14","224754","0.0-14.0","","6","<strong>Cách mô tả nào về ""cái bàn"" nghe tự nhiên hơn?</strong>","sub_sub_noun","table","cái bàn","","","","","tall","cao","big","lớn","","","",""
"16176","","html-slider-response","15","240937","0.0-15.0","","0","<strong>Cách mô tả nào về ""cái ghế"" nghe tự nhiên hơn?</strong>","sub_int_noun","chair","cái ghế","","","","","","","","","beautiful","đẹp","wooden","gỗ"
"11403.99999999997","","html-slider-response","16","252353","0.0-16.0","","0","<strong>Cách mô tả nào về ""cái xe"" nghe tự nhiên hơn?</strong>","sub_int_noun","car","cái xe","","","","","","","","","big","lớn","clean","sạch"
"10199","","html-slider-response","17","262557","0.0-17.0","","6","<strong>Cách mô tả nào về ""cục kẹo"" nghe tự nhiên hơn?</strong>","sub_int_noun","candy","cục kẹo","","","","","","","","","beautiful","đẹp","yellow","màu vàng"
"6857","","html-slider-response","18","269419","0.0-18.0","","0","<strong>Cách mô tả nào về ""trái chuối"" nghe tự nhiên hơn?</strong>","sub_int_noun","banana","trái chuối","","","","","","","","","small","nhỏ","clean","sạch"
"8143.000000000058","","html-slider-response","19","277575","0.0-19.0","","0","<strong>Cách mô tả nào về  ""trái ớt"" nghe tự nhiên hơn?</strong>","int_int_noun","pepper","trái ớt","red","màu đỏ","square","hình vuông","","","","","","","",""
"10797","","html-slider-response","20","288376","0.0-20.0","","0","<strong>Cách mô tả nào về  ""trái ớt"" nghe tự nhiên hơn?</strong>","int_int_noun","pepper","trái ớt","round","hình tròn","red","màu đỏ","","","","","","","",""
"9083","","html-slider-response","21","297467","0.0-21.0","","6","<strong>Cách mô tả nào về ""cái ly"" nghe tự nhiên hơn?</strong>","sub_sub_noun","cup","cái ly","","","","","beautiful","đẹp","small","nhỏ","","","",""
"8423","","html-slider-response","22","305895","0.0-22.0","","6","<strong>Cách mô tả nào về ""cái ly"" nghe tự nhiên hơn?</strong>","sub_sub_noun","cup","cái ly","","","","","beautiful","đẹp","short","thấp","","","",""
"8739","","html-slider-response","23","314644","0.0-23.0","","6","<strong>Cách mô tả nào về  ""cái bàn"" nghe tự nhiên hơn?</strong>","int_int_noun","table","cái bàn","red","màu đỏ","wooden","gỗ","","","","","","","",""
"21365","","html-slider-response","24","336016","0.0-24.0","","0","<strong>Cách mô tả nào về ""xôi"" nghe tự nhiên hơn?</strong>","sub_sub_noun","sticky rice","xôi","","","","","bitter","đắng","ugly","xấu","","","",""
"16211","","html-slider-response","25","352231","0.0-25.0","","6","<strong>Cách mô tả nào về ""cục kẹo"" nghe tự nhiên hơn?</strong>","sub_int_noun","candy","cục kẹo","","","","","","","","","bitter","đắng","square","hình vuông"
"8613","","html-slider-response","26","360850","0.0-26.0","","0","<strong>Cách mô tả nào về ""trái xoài"" nghe tự nhiên hơn?</strong>","sub_int_noun","mango","trái xoài","","","","","","","","","small","nhỏ","round","hình tròn"
"5826","","html-slider-response","27","366681","0.0-27.0","","6","<strong>Cách mô tả nào về ""cái ghế"" nghe tự nhiên hơn?</strong>","sub_sub_noun","chair","cái ghế","","","","","ugly","xấu","short","thấp","","","",""
"11569","","html-slider-response","28","378256","0.0-28.0","","6","<strong>Cách mô tả nào về  ""xôi"" nghe tự nhiên hơn?</strong>","int_int_noun","sticky rice","xôi","dirty","dơ","yellow","màu vàng","","","","","","","",""
"37446","","html-slider-response","29","415710","0.0-29.0","","6","<strong>Cách mô tả nào về ""trái xoài"" nghe tự nhiên hơn?</strong>","sub_int_noun","mango","trái xoài","","","","","","","","","ugly","xấu","round","hình tròn"
"23388","","html-slider-response","30","439109","0.0-30.0","","6","<strong>Cách mô tả nào về ""cái ghế"" nghe tự nhiên hơn?</strong>","sub_sub_noun","chair","cái ghế","","","","","ugly","xấu","big","lớn","","","",""
"6731","","html-slider-response","31","445846","0.0-31.0","","6","<strong>Cách mô tả nào về ""cục kẹo"" nghe tự nhiên hơn?</strong>","sub_int_noun","candy","cục kẹo","","","","","","","","","beautiful","đẹp","square","hình vuông"
